   Elapsed time;   ECG1
      (seconds);   (mV)
          0.000;  0.160
          0.008;  0.180
          0.016;  0.170
          0.023;  0.180
          0.031;  0.180
          0.039;  0.170
          0.047;  0.170
          0.055;  0.130
          0.062;  0.130
          0.070;  0.100
          0.078;  0.060
          0.086;  0.040
          0.094;  0.010
          0.102; -0.010
          0.109; -0.020
          0.117; -0.020
          0.125; -0.020
          0.133; -0.030
          0.141;  0.000
          0.148;  0.000
          0.156;  0.000
          0.164;  0.020
          0.172;  0.030
          0.180;  0.040
          0.188;  0.030
          0.195;  0.070
          0.203;  0.050
          0.211;  0.060
          0.219;  0.050
          0.227;  0.050
          0.234;  0.050
          0.242;  0.050
          0.250;  0.060
          0.258;  0.050
          0.266;  0.050
          0.273;  0.030
          0.281;  0.030
          0.289;  0.030
          0.297;  0.020
          0.305;  0.020
          0.312;  0.020
          0.320;  0.010
          0.328;  0.000
          0.336;  0.000
          0.344;  0.000
          0.352; -0.010
          0.359;  0.000
          0.367; -0.010
          0.375; -0.010
          0.383; -0.010
          0.391; -0.010
          0.398; -0.010
          0.406; -0.020
          0.414; -0.020
          0.422; -0.010
          0.430; -0.010
          0.438;  0.000
          0.445;  0.060
          0.453;  0.050
          0.461;  0.090
          0.469;  0.110
          0.477;  0.160
          0.484;  0.130
          0.492;  0.050
          0.500;  0.030
          0.508; -0.090
          0.516; -0.120
          0.523; -0.090
          0.531; -0.080
          0.539; -0.090
          0.547; -0.080
          0.555; -0.080
          0.562; -0.070
          0.570; -0.080
          0.578;  0.090
          0.586;  0.450
          0.594;  0.790
          0.602; -1.170
          0.609; -1.910
          0.617; -1.640
          0.625; -1.280
          0.633; -0.520
          0.641; -0.150
          0.648; -0.030
          0.656; -0.030
          0.664;  0.010
          0.672;  0.030
          0.680;  0.050
          0.688;  0.060
          0.695;  0.080
          0.703;  0.090
          0.711;  0.100
          0.719;  0.130
          0.727;  0.140
          0.734;  0.160
          0.742;  0.150
          0.750;  0.180
          0.758;  0.200
          0.766;  0.220
          0.773;  0.220
          0.781;  0.260
          0.789;  0.280
          0.797;  0.280
          0.805;  0.300
          0.812;  0.290
          0.820;  0.290
          0.828;  0.270
          0.836;  0.240
          0.844;  0.210
          0.852;  0.170
          0.859;  0.130
          0.867;  0.100
          0.875;  0.050
          0.883;  0.030
          0.891;  0.040
          0.898;  0.050
          0.906;  0.040
          0.914;  0.050
          0.922;  0.060
          0.930;  0.060
          0.938;  0.060
          0.945;  0.060
          0.953;  0.050
          0.961;  0.040
          0.969;  0.070
          0.977;  0.060
          0.984;  0.070
          0.992;  0.060
          1.000;  0.080
          1.008;  0.080
          1.016;  0.080
          1.023;  0.090
          1.031;  0.100
          1.039;  0.100
          1.047;  0.090
          1.055;  0.090
          1.062;  0.090
          1.070;  0.080
          1.078;  0.070
          1.086;  0.070
          1.094;  0.060
          1.102;  0.050
          1.109;  0.050
          1.117;  0.050
          1.125;  0.020
          1.133;  0.040
          1.141;  0.030
          1.148;  0.010
          1.156;  0.010
          1.164;  0.000
          1.172;  0.010
          1.180;  0.000
          1.188;  0.000
          1.195;  0.000
          1.203;  0.000
          1.211; -0.020
          1.219; -0.010
          1.227; -0.010
          1.234; -0.020
          1.242; -0.020
          1.250; -0.020
          1.258; -0.020
          1.266;  0.020
          1.273;  0.020
          1.281;  0.060
          1.289;  0.060
          1.297;  0.140
          1.305;  0.100
          1.312;  0.020
          1.320; -0.020
          1.328; -0.130
          1.336; -0.130
          1.344; -0.130
          1.352; -0.100
          1.359; -0.100
          1.367; -0.100
          1.375; -0.110
          1.383; -0.110
          1.391; -0.090
          1.398;  0.160
          1.406;  0.430
          1.414;  0.750
          1.422; -1.520
          1.430; -1.930
          1.438; -1.360
          1.445; -1.110
          1.453; -0.440
          1.461; -0.080
          1.469; -0.060
          1.477; -0.040
          1.484;  0.000
          1.492;  0.020
          1.500;  0.050
          1.508;  0.060
          1.516;  0.060
          1.523;  0.090
          1.531;  0.090
          1.539;  0.100
          1.547;  0.120
          1.555;  0.140
          1.562;  0.140
          1.570;  0.160
          1.578;  0.190
          1.586;  0.210
          1.594;  0.210
          1.602;  0.240
          1.609;  0.250
          1.617;  0.250
          1.625;  0.250
          1.633;  0.260
          1.641;  0.240
          1.648;  0.210
          1.656;  0.190
          1.664;  0.170
          1.672;  0.110
          1.680;  0.070
          1.688;  0.050
          1.695;  0.010
          1.703;  0.010
          1.711; -0.010
          1.719;  0.010
          1.727;  0.000
          1.734;  0.010
          1.742;  0.020
          1.750;  0.010
          1.758;  0.010
          1.766;  0.020
          1.773;  0.020
          1.781;  0.010
          1.789;  0.010
          1.797;  0.020
          1.805;  0.020
          1.812;  0.020
          1.820;  0.020
          1.828;  0.020
          1.836;  0.020
          1.844;  0.020
          1.852;  0.030
          1.859;  0.030
          1.867;  0.020
          1.875;  0.020
          1.883;  0.020
          1.891;  0.030
          1.898;  0.010
          1.906;  0.010
          1.914;  0.000
          1.922; -0.020
          1.930;  0.000
          1.938; -0.010
          1.945; -0.020
          1.953; -0.020
          1.961; -0.020
          1.969; -0.020
          1.977; -0.030
          1.984; -0.040
          1.992; -0.050
          2.000; -0.050
          2.008; -0.060
          2.016; -0.060
          2.023; -0.060
          2.031; -0.060
          2.039; -0.060
          2.047; -0.060
          2.055; -0.060
          2.062; -0.060
          2.070; -0.020
          2.078; -0.020
          2.086; -0.010
          2.094;  0.030
          2.102;  0.080
          2.109;  0.090
          2.117;  0.000
          2.125; -0.050
          2.133; -0.130
          2.141; -0.180
          2.148; -0.160
          2.156; -0.150
          2.164; -0.130
          2.172; -0.130
          2.180; -0.140
          2.188; -0.130
          2.195; -0.140
          2.203; -0.040
          2.211;  0.340
          2.219;  0.710
          2.227; -1.050
          2.234; -1.870
          2.242; -1.580
          2.250; -1.250
          2.258; -0.540
          2.266; -0.170
          2.273; -0.070
          2.281; -0.070
          2.289; -0.030
          2.297; -0.010
          2.305;  0.010
          2.312;  0.020
          2.320;  0.030
          2.328;  0.040
          2.336;  0.040
          2.344;  0.040
          2.352;  0.060
          2.359;  0.080
          2.367;  0.080
          2.375;  0.090
          2.383;  0.100
          2.391;  0.110
          2.398;  0.120
          2.406;  0.140
          2.414;  0.150
          2.422;  0.170
          2.430;  0.150
          2.438;  0.160
          2.445;  0.140
          2.453;  0.120
          2.461;  0.120
          2.469;  0.080
          2.477;  0.040
          2.484;  0.030
          2.492;  0.010
          2.500; -0.020
          2.508; -0.030
          2.516; -0.010
          2.523; -0.030
          2.531; -0.010
          2.539;  0.000
          2.547;  0.010
          2.555;  0.010
          2.562;  0.020
          2.570;  0.020
          2.578;  0.010
          2.586;  0.000
          2.594;  0.000
          2.602;  0.010
          2.609;  0.010
          2.617;  0.020
          2.625;  0.010
          2.633;  0.010
          2.641;  0.030
          2.648;  0.030
          2.656;  0.010
          2.664;  0.020
          2.672;  0.010
          2.680;  0.030
          2.688;  0.010
          2.695; -0.010
          2.703;  0.010
          2.711;  0.010
          2.719;  0.000
          2.727; -0.010
          2.734; -0.010
          2.742; -0.010
          2.750; -0.020
          2.758; -0.010
          2.766; -0.010
          2.773; -0.020
          2.781; -0.050
          2.789; -0.020
          2.797; -0.030
          2.805; -0.020
          2.812; -0.050
          2.820; -0.030
          2.828; -0.040
          2.836; -0.040
          2.844; -0.010
          2.852;  0.030
          2.859; -0.020
          2.867;  0.070
          2.875;  0.060
          2.883;  0.130
          2.891;  0.100
          2.898;  0.030
          2.906; -0.020
          2.914; -0.120
          2.922; -0.140
          2.930; -0.150
          2.938; -0.110
          2.945; -0.130
          2.953; -0.130
          2.961; -0.140
          2.969; -0.120
          2.977; -0.140
          2.984;  0.080
          2.992;  0.340
          3.000;  0.670
          3.008; -0.810
          3.016; -1.640
          3.023; -1.350
          3.031; -1.110
          3.039; -0.610
          3.047; -0.210
          3.055; -0.110
          3.062; -0.090
          3.070; -0.060
          3.078; -0.030
          3.086; -0.030
          3.094;  0.000
          3.102;  0.000
          3.109;  0.010
          3.117;  0.020
          3.125;  0.040
          3.133;  0.050
          3.141;  0.040
          3.148;  0.060
          3.156;  0.080
          3.164;  0.080
          3.172;  0.100
          3.180;  0.120
          3.188;  0.140
          3.195;  0.150
          3.203;  0.170
          3.211;  0.170
          3.219;  0.170
          3.227;  0.160
          3.234;  0.150
          3.242;  0.140
          3.250;  0.100
          3.258;  0.100
          3.266;  0.060
          3.273;  0.020
          3.281;  0.000
          3.289;  0.010
          3.297; -0.020
          3.305; -0.020
          3.312; -0.010
          3.320; -0.020
          3.328;  0.010
          3.336;  0.000
          3.344;  0.000
          3.352;  0.010
          3.359;  0.010
          3.367;  0.010
          3.375;  0.020
          3.383;  0.020
          3.391;  0.030
          3.398;  0.020
          3.406;  0.030
          3.414;  0.030
          3.422;  0.020
          3.430;  0.030
          3.438;  0.020
          3.445;  0.010
          3.453;  0.010
          3.461;  0.010
          3.469; -0.010
          3.477;  0.000
          3.484;  0.000
          3.492;  0.010
          3.500; -0.020
          3.508;  0.000
          3.516; -0.010
          3.523; -0.020
          3.531; -0.010
          3.539; -0.010
          3.547; -0.020
          3.555; -0.020
          3.562; -0.020
          3.570; -0.020
          3.578; -0.020
          3.586; -0.030
          3.594; -0.020
          3.602; -0.020
          3.609; -0.040
          3.617; -0.020
          3.625;  0.020
          3.633;  0.040
          3.641;  0.040
          3.648;  0.080
          3.656;  0.120
          3.664;  0.150
          3.672;  0.060
          3.680;  0.010
          3.688; -0.050
          3.695; -0.140
          3.703; -0.110
          3.711; -0.120
          3.719; -0.110
          3.727; -0.100
          3.734; -0.100
          3.742; -0.080
          3.750; -0.100
          3.758; -0.030
          3.766;  0.350
          3.773;  0.610
          3.781; -0.460
          3.789; -1.880
          3.797; -1.900
          3.805; -1.250
          3.812; -0.630
          3.820; -0.260
          3.828; -0.030
          3.836; -0.040
          3.844;  0.000
          3.852;  0.020
          3.859;  0.040
          3.867;  0.050
          3.875;  0.070
          3.883;  0.070
          3.891;  0.090
          3.898;  0.100
          3.906;  0.120
          3.914;  0.110
          3.922;  0.150
          3.930;  0.150
          3.938;  0.180
          3.945;  0.190
          3.953;  0.210
          3.961;  0.220
          3.969;  0.240
          3.977;  0.250
          3.984;  0.260
          3.992;  0.260
          4.000;  0.240
          4.008;  0.230
          4.016;  0.190
          4.023;  0.170
          4.031;  0.130
          4.039;  0.090
          4.047;  0.040
          4.055;  0.000
          4.062;  0.000
          4.070; -0.010
          4.078; -0.020
          4.086; -0.020
          4.094;  0.000
          4.102;  0.000
          4.109;  0.010
          4.117;  0.000
          4.125;  0.000
          4.133; -0.010
          4.141;  0.010
          4.148;  0.000
          4.156;  0.000
          4.164;  0.020
          4.172;  0.010
          4.180;  0.020
          4.188;  0.030
          4.195;  0.030
          4.203;  0.050
          4.211;  0.050
          4.219;  0.050
          4.227;  0.050
          4.234;  0.050
          4.242;  0.040
          4.250;  0.030
          4.258;  0.040
          4.266;  0.020
          4.273;  0.030
          4.281;  0.010
          4.289;  0.020
          4.297;  0.000
          4.305;  0.010
          4.312;  0.010
          4.320;  0.010
          4.328; -0.010
          4.336; -0.010
          4.344;  0.000
          4.352; -0.020
          4.359; -0.010
          4.367; -0.010
          4.375; -0.010
          4.383; -0.020
          4.391; -0.010
          4.398; -0.020
          4.406; -0.020
          4.414; -0.020
          4.422; -0.020
          4.430;  0.020
          4.438;  0.050
          4.445;  0.020
          4.453;  0.090
          4.461;  0.100
          4.469;  0.160
          4.477;  0.070
          4.484;  0.010
          4.492; -0.050
          4.500; -0.120
          4.508; -0.100
          4.516; -0.100
          4.523; -0.080
          4.531; -0.070
          4.539; -0.090
          4.547; -0.100
          4.555; -0.090
          4.562; -0.050
          4.570;  0.340
          4.578;  0.580
          4.586; -0.420
          4.594; -1.840
          4.602; -1.800
          4.609; -1.220
          4.617; -0.570
          4.625; -0.220
          4.633; -0.040
          4.641; -0.030
          4.648; -0.020
          4.656;  0.010
          4.664;  0.020
          4.672;  0.050
          4.680;  0.050
          4.688;  0.040
          4.695;  0.060
          4.703;  0.080
          4.711;  0.080
          4.719;  0.110
          4.727;  0.110
          4.734;  0.120
          4.742;  0.140
          4.750;  0.140
          4.758;  0.180
          4.766;  0.180
          4.773;  0.210
          4.781;  0.210
          4.789;  0.220
          4.797;  0.220
          4.805;  0.220
          4.812;  0.190
          4.820;  0.180
          4.828;  0.160
          4.836;  0.140
          4.844;  0.090
          4.852;  0.040
          4.859;  0.020
          4.867;  0.000
          4.875;  0.010
          4.883;  0.020
          4.891;  0.010
          4.898;  0.020
          4.906;  0.030
          4.914;  0.030
          4.922;  0.040
          4.930;  0.030
          4.938;  0.040
          4.945;  0.030
          4.953;  0.030
          4.961;  0.020
          4.969;  0.040
          4.977;  0.040
          4.984;  0.030
          4.992;  0.040
          5.000;  0.040
          5.008;  0.040
          5.016;  0.040
          5.023;  0.050
          5.031;  0.060
          5.039;  0.040
          5.047;  0.040
          5.055;  0.040
          5.062;  0.020
          5.070;  0.020
          5.078;  0.020
          5.086;  0.010
          5.094;  0.010
          5.102;  0.000
          5.109; -0.010
          5.117; -0.020
          5.125; -0.020
          5.133; -0.010
          5.141; -0.020
          5.148; -0.030
          5.156; -0.020
          5.164; -0.030
          5.172; -0.030
          5.180; -0.040
          5.188; -0.030
          5.195; -0.030
          5.203; -0.040
          5.211; -0.050
          5.219; -0.050
          5.227; -0.030
          5.234; -0.040
          5.242;  0.010
          5.250;  0.030
          5.258;  0.010
          5.266;  0.060
          5.273;  0.090
          5.281;  0.140
          5.289;  0.040
          5.297; -0.010
          5.305; -0.070
          5.312; -0.140
          5.320; -0.120
          5.328; -0.100
          5.336; -0.080
          5.344; -0.080
          5.352; -0.100
          5.359; -0.060
          5.367; -0.100
          5.375; -0.050
          5.383;  0.340
          5.391;  0.590
          5.398; -0.410
          5.406; -1.790
          5.414; -1.750
          5.422; -1.160
          5.430; -0.560
          5.438; -0.210
          5.445; -0.010
          5.453; -0.010
          5.461;  0.010
          5.469;  0.040
          5.477;  0.050
          5.484;  0.070
          5.492;  0.090
          5.500;  0.080
          5.508;  0.090
          5.516;  0.090
          5.523;  0.100
          5.531;  0.110
          5.539;  0.130
          5.547;  0.130
          5.555;  0.140
          5.562;  0.160
          5.570;  0.160
          5.578;  0.190
          5.586;  0.180
          5.594;  0.200
          5.602;  0.210
          5.609;  0.210
          5.617;  0.190
          5.625;  0.170
          5.633;  0.160
          5.641;  0.150
          5.648;  0.120
          5.656;  0.090
          5.664;  0.050
          5.672;  0.030
          5.680;  0.010
          5.688;  0.020
          5.695;  0.020
          5.703;  0.020
          5.711;  0.040
          5.719;  0.030
          5.727;  0.030
          5.734;  0.020
          5.742;  0.050
          5.750;  0.040
          5.758;  0.040
          5.766;  0.040
          5.773;  0.040
          5.781;  0.040
          5.789;  0.040
          5.797;  0.060
          5.805;  0.060
          5.812;  0.070
          5.820;  0.050
          5.828;  0.070
          5.836;  0.070
          5.844;  0.060
          5.852;  0.060
          5.859;  0.070
          5.867;  0.050
          5.875;  0.060
          5.883;  0.030
          5.891;  0.020
          5.898;  0.020
          5.906;  0.030
          5.914;  0.020
          5.922;  0.010
          5.930;  0.020
          5.938;  0.010
          5.945;  0.000
          5.953;  0.000
          5.961;  0.000
          5.969;  0.010
          5.977; -0.020
          5.984; -0.010
          5.992; -0.010
          6.000; -0.020
          6.008; -0.020
          6.016; -0.020
          6.023; -0.010
          6.031; -0.020
          6.039; -0.020
          6.047;  0.030
          6.055;  0.050
          6.062;  0.010
          6.070;  0.090
          6.078;  0.130
          6.086;  0.140
          6.094;  0.070
          6.102;  0.020
          6.109; -0.050
          6.117; -0.110
          6.125; -0.090
          6.133; -0.090
          6.141; -0.090
          6.148; -0.100
          6.156; -0.100
          6.164; -0.090
          6.172; -0.120
          6.180; -0.060
          6.188;  0.260
          6.195;  0.560
          6.203; -0.050
          6.211; -1.590
          6.219; -1.530
          6.227; -1.150
          6.234; -0.620
          6.242; -0.300
          6.250; -0.040
          6.258; -0.050
          6.266; -0.030
          6.273;  0.000
          6.281;  0.030
          6.289;  0.020
          6.297;  0.040
          6.305;  0.060
          6.312;  0.080
          6.320;  0.070
          6.328;  0.090
          6.336;  0.100
          6.344;  0.090
          6.352;  0.130
          6.359;  0.130
          6.367;  0.150
          6.375;  0.140
          6.383;  0.160
          6.391;  0.180
          6.398;  0.180
          6.406;  0.190
          6.414;  0.190
          6.422;  0.190
          6.430;  0.170
          6.438;  0.170
          6.445;  0.160
          6.453;  0.130
          6.461;  0.120
          6.469;  0.090
          6.477;  0.060
          6.484;  0.030
          6.492;  0.030
          6.500;  0.020
          6.508;  0.010
          6.516;  0.040
          6.523;  0.030
          6.531;  0.030
          6.539;  0.040
          6.547;  0.030
          6.555;  0.050
          6.562;  0.050
          6.570;  0.060
          6.578;  0.060
          6.586;  0.050
          6.594;  0.070
          6.602;  0.050
          6.609;  0.050
          6.617;  0.050
          6.625;  0.060
          6.633;  0.050
          6.641;  0.040
          6.648;  0.040
          6.656;  0.040
          6.664;  0.020
          6.672;  0.020
          6.680;  0.030
          6.688;  0.020
          6.695;  0.010
          6.703;  0.020
          6.711;  0.010
          6.719;  0.020
          6.727;  0.010
          6.734;  0.010
          6.742;  0.000
          6.750;  0.010
          6.758;  0.000
          6.766;  0.010
          6.773;  0.010
          6.781;  0.000
          6.789;  0.000
          6.797;  0.000
          6.805;  0.000
          6.812; -0.010
          6.820;  0.000
          6.828;  0.010
          6.836;  0.040
          6.844;  0.090
          6.852;  0.050
          6.859;  0.130
          6.867;  0.100
          6.875;  0.200
          6.883;  0.100
          6.891;  0.050
          6.898;  0.000
          6.906; -0.110
          6.914; -0.100
          6.922; -0.110
          6.930; -0.080
          6.938; -0.060
          6.945; -0.090
          6.953; -0.090
          6.961; -0.080
          6.969; -0.070
          6.977;  0.250
          6.984;  0.500
          6.992;  0.430
          7.000; -1.720
          7.008; -1.890
          7.016; -1.190
          7.023; -0.790
          7.031; -0.350
          7.039; -0.020
          7.047;  0.000
          7.055;  0.000
          7.062;  0.020
          7.070;  0.050
          7.078;  0.060
          7.086;  0.070
          7.094;  0.100
          7.102;  0.110
          7.109;  0.110
          7.117;  0.120
          7.125;  0.140
          7.133;  0.140
          7.141;  0.160
          7.148;  0.180
          7.156;  0.190
          7.164;  0.200
          7.172;  0.220
          7.180;  0.250
          7.188;  0.250
          7.195;  0.260
          7.203;  0.260
          7.211;  0.260
          7.219;  0.240
          7.227;  0.220
          7.234;  0.220
          7.242;  0.170
          7.250;  0.120
          7.258;  0.080
          7.266;  0.050
          7.273;  0.020
          7.281;  0.010
          7.289;  0.010
          7.297;  0.030
          7.305;  0.030
          7.312;  0.040
          7.320;  0.040
          7.328;  0.050
          7.336;  0.040
          7.344;  0.060
          7.352;  0.050
          7.359;  0.040
          7.367;  0.040
          7.375;  0.050
          7.383;  0.040
          7.391;  0.040
          7.398;  0.050
          7.406;  0.050
          7.414;  0.040
          7.422;  0.050
          7.430;  0.040
          7.438;  0.040
          7.445;  0.040
          7.453;  0.040
          7.461;  0.030
          7.469;  0.020
          7.477;  0.010
          7.484;  0.000
          7.492; -0.010
          7.500; -0.010
          7.508; -0.010
          7.516; -0.010
          7.523; -0.020
          7.531; -0.020
          7.539; -0.030
          7.547; -0.020
          7.555; -0.040
          7.562; -0.040
          7.570; -0.040
          7.578; -0.050
          7.586; -0.050
          7.594; -0.050
          7.602; -0.050
          7.609; -0.070
          7.617; -0.060
          7.625; -0.040
          7.633;  0.020
          7.641; -0.020
          7.648;  0.050
          7.656;  0.060
          7.664;  0.130
          7.672;  0.030
          7.680; -0.020
          7.688; -0.070
          7.695; -0.180
          7.703; -0.160
          7.711; -0.150
          7.719; -0.130
          7.727; -0.130
          7.734; -0.130
          7.742; -0.140
          7.750; -0.130
          7.758; -0.120
          7.766;  0.210
          7.773;  0.440
          7.781;  0.550
          7.789; -1.750
          7.797; -1.930
          7.805; -1.220
          7.812; -0.940
          7.820; -0.380
          7.828; -0.040
          7.836; -0.050
          7.844; -0.020
          7.852;  0.010
          7.859;  0.020
          7.867;  0.020
          7.875;  0.050
          7.883;  0.050
          7.891;  0.060
          7.898;  0.080
          7.906;  0.090
          7.914;  0.090
          7.922;  0.100
          7.930;  0.110
          7.938;  0.130
          7.945;  0.140
          7.953;  0.160
          7.961;  0.180
          7.969;  0.200
          7.977;  0.210
          7.984;  0.230
          7.992;  0.230
          8.000;  0.220
          8.008;  0.210
          8.016;  0.180
          8.023;  0.150
          8.031;  0.130
          8.039;  0.100
          8.047;  0.050
          8.055;  0.010
          8.062; -0.010
          8.070; -0.010
          8.078; -0.010
          8.086; -0.020
          8.094;  0.010
          8.102;  0.020
          8.109;  0.040
          8.117;  0.040
          8.125;  0.040
          8.133;  0.040
          8.141;  0.040
          8.148;  0.040
          8.156;  0.040
          8.164;  0.030
          8.172;  0.050
          8.180;  0.050
          8.188;  0.040
          8.195;  0.050
          8.203;  0.080
          8.211;  0.070
          8.219;  0.080
          8.227;  0.080
          8.234;  0.080
          8.242;  0.070
          8.250;  0.060
          8.258;  0.060
          8.266;  0.070
          8.273;  0.050
          8.281;  0.040
          8.289;  0.040
          8.297;  0.040
          8.305;  0.020
          8.312;  0.050
          8.320;  0.030
          8.328;  0.020
          8.336;  0.000
          8.344;  0.020
          8.352;  0.010
          8.359; -0.010
          8.367;  0.000
          8.375;  0.000
          8.383; -0.030
          8.391; -0.020
          8.398; -0.030
          8.406; -0.020
          8.414; -0.030
          8.422; -0.020
          8.430; -0.010
          8.438;  0.030
          8.445;  0.010
          8.453;  0.040
          8.461;  0.070
          8.469;  0.140
          8.477;  0.100
          8.484;  0.040
          8.492; -0.010
          8.500; -0.130
          8.508; -0.140
          8.516; -0.120
          8.523; -0.120
          8.531; -0.120
          8.539; -0.110
          8.547; -0.110
          8.555; -0.100
          8.562; -0.110
          8.570;  0.030
          8.578;  0.340
          8.586;  0.710
          8.594; -0.980
          8.602; -1.840
          8.609; -1.580
          8.617; -1.260
          8.625; -0.520
          8.633; -0.170
          8.641; -0.060
          8.648; -0.050
          8.656; -0.030
          8.664; -0.010
          8.672;  0.000
          8.680;  0.020
          8.688;  0.040
          8.695;  0.040
          8.703;  0.070
          8.711;  0.060
          8.719;  0.080
          8.727;  0.100
          8.734;  0.110
          8.742;  0.120
          8.750;  0.130
          8.758;  0.150
          8.766;  0.150
          8.773;  0.180
          8.781;  0.180
          8.789;  0.200
          8.797;  0.200
          8.805;  0.190
          8.812;  0.200
          8.820;  0.180
          8.828;  0.160
          8.836;  0.130
          8.844;  0.120
          8.852;  0.070
          8.859;  0.030
          8.867;  0.000
          8.875; -0.010
          8.883; -0.020
          8.891; -0.010
          8.898;  0.000
          8.906;  0.020
          8.914;  0.010
          8.922;  0.030
          8.930;  0.030
          8.938;  0.030
          8.945;  0.040
          8.953;  0.050
          8.961;  0.050
          8.969;  0.040
          8.977;  0.050
          8.984;  0.040
          8.992;  0.070
          9.000;  0.060
          9.008;  0.070
          9.016;  0.060
          9.023;  0.060
          9.031;  0.060
          9.039;  0.060
          9.047;  0.040
          9.055;  0.040
          9.062;  0.040
          9.070;  0.040
          9.078;  0.030
          9.086;  0.000
          9.094;  0.020
          9.102;  0.000
          9.109; -0.010
          9.117;  0.000
          9.125;  0.010
          9.133; -0.010
          9.141; -0.010
          9.148; -0.020
          9.156; -0.020
          9.164; -0.020
          9.172; -0.040
          9.180; -0.020
          9.188; -0.020
          9.195; -0.030
          9.203; -0.020
          9.211; -0.030
          9.219; -0.040
          9.227; -0.030
          9.234;  0.000
          9.242;  0.040
          9.250;  0.000
          9.258;  0.080
          9.266;  0.060
          9.273;  0.160
          9.281;  0.080
          9.289;  0.030
          9.297; -0.010
          9.305; -0.150
          9.312; -0.100
          9.320; -0.110
          9.328; -0.100
          9.336; -0.080
          9.344; -0.110
          9.352; -0.090
          9.359; -0.090
          9.367; -0.090
          9.375;  0.230
          9.383;  0.490
          9.391;  0.600
          9.398; -1.550
          9.406; -1.700
          9.414; -1.110
          9.422; -0.800
          9.430; -0.420
          9.438; -0.040
          9.445; -0.050
          9.453; -0.010
          9.461;  0.010
          9.469;  0.020
          9.477;  0.030
          9.484;  0.040
          9.492;  0.070
          9.500;  0.060
          9.508;  0.070
          9.516;  0.090
          9.523;  0.080
          9.531;  0.090
          9.539;  0.100
          9.547;  0.110
          9.555;  0.110
          9.562;  0.140
          9.570;  0.140
          9.578;  0.150
          9.586;  0.140
          9.594;  0.140
          9.602;  0.140
          9.609;  0.140
          9.617;  0.130
          9.625;  0.110
          9.633;  0.090
          9.641;  0.070
          9.648;  0.060
          9.656;  0.020
          9.664;  0.020
          9.672;  0.010
          9.680; -0.010
          9.688; -0.030
          9.695; -0.020
          9.703; -0.020
          9.711;  0.010
          9.719; -0.010
          9.727;  0.000
          9.734; -0.010
          9.742; -0.010
          9.750; -0.010
          9.758; -0.010
          9.766; -0.010
          9.773; -0.010
          9.781; -0.020
          9.789; -0.010
          9.797; -0.010
          9.805; -0.020
          9.812;  0.000
          9.820;  0.010
          9.828; -0.010
          9.836; -0.020
          9.844; -0.030
          9.852; -0.010
          9.859; -0.020
          9.867; -0.030
          9.875; -0.020
          9.883; -0.010
          9.891; -0.020
          9.898; -0.020
          9.906; -0.020
          9.914; -0.030
          9.922; -0.020
          9.930; -0.020
          9.938; -0.040
          9.945; -0.040
          9.953; -0.030
          9.961; -0.030
          9.969; -0.030
          9.977; -0.040
          9.984; -0.040
          9.992; -0.050
         10.000; -0.040
         10.008; -0.040
         10.016; -0.030
         10.023; -0.030
         10.031;  0.030
         10.039; -0.010
         10.047;  0.060
         10.055;  0.040
         10.062;  0.150
         10.070;  0.090
         10.078;  0.020
         10.086; -0.020
         10.094; -0.120
         10.102; -0.130
         10.109; -0.130
         10.117; -0.100
         10.125; -0.110
         10.133; -0.120
         10.141; -0.130
         10.148; -0.110
         10.156; -0.120
         10.164;  0.150
         10.172;  0.440
         10.180;  0.730
         10.188; -1.120
         10.195; -1.580
         10.203; -1.230
         10.211; -0.900
         10.219; -0.540
         10.227; -0.090
         10.234; -0.060
         10.242; -0.050
         10.250; -0.020
         10.258;  0.010
         10.266;  0.030
         10.273;  0.040
         10.281;  0.060
         10.289;  0.050
         10.297;  0.080
         10.305;  0.080
         10.312;  0.100
         10.320;  0.120
         10.328;  0.130
         10.336;  0.140
         10.344;  0.180
         10.352;  0.180
         10.359;  0.190
         10.367;  0.230
         10.375;  0.250
         10.383;  0.250
         10.391;  0.260
         10.398;  0.270
         10.406;  0.250
         10.414;  0.240
         10.422;  0.220
         10.430;  0.200
         10.438;  0.150
         10.445;  0.100
         10.453;  0.080
         10.461;  0.050
         10.469;  0.040
         10.477;  0.030
         10.484;  0.030
         10.492;  0.030
         10.500;  0.040
         10.508;  0.040
         10.516;  0.050
         10.523;  0.050
         10.531;  0.060
         10.539;  0.050
         10.547;  0.070
         10.555;  0.050
         10.562;  0.080
         10.570;  0.070
         10.578;  0.070
         10.586;  0.080
         10.594;  0.070
         10.602;  0.070
         10.609;  0.070
         10.617;  0.070
         10.625;  0.060
         10.633;  0.050
         10.641;  0.050
         10.648;  0.050
         10.656;  0.040
         10.664;  0.030
         10.672;  0.050
         10.680;  0.030
         10.688;  0.030
         10.695;  0.020
         10.703;  0.020
         10.711;  0.020
         10.719;  0.020
         10.727;  0.030
         10.734;  0.030
         10.742;  0.020
         10.750;  0.020
         10.758;  0.020
         10.766;  0.010
         10.773;  0.010
         10.781;  0.010
         10.789;  0.010
         10.797;  0.010
         10.805;  0.000
         10.812;  0.000
         10.820;  0.000
         10.828; -0.010
         10.836;  0.000
         10.844;  0.020
         10.852;  0.060
         10.859;  0.050
         10.867;  0.080
         10.875;  0.100
         10.883;  0.180
         10.891;  0.130
         10.898;  0.070
         10.906;  0.010
         10.914; -0.100
         10.922; -0.100
         10.930; -0.090
         10.938; -0.080
         10.945; -0.080
         10.953; -0.060
         10.961; -0.090
         10.969; -0.080
         10.977; -0.070
         10.984;  0.110
         10.992;  0.420
         11.000;  0.820
         11.008; -1.300
         11.016; -1.870
         11.023; -1.530
         11.031; -1.220
         11.039; -0.430
         11.047; -0.070
         11.055; -0.020
         11.062;  0.010
         11.070;  0.020
         11.078;  0.030
         11.086;  0.060
         11.094;  0.080
         11.102;  0.090
         11.109;  0.090
         11.117;  0.110
         11.125;  0.130
         11.133;  0.140
         11.141;  0.140
         11.148;  0.170
         11.156;  0.160
         11.164;  0.180
         11.172;  0.200
         11.180;  0.210
         11.188;  0.230
         11.195;  0.230
         11.203;  0.270
         11.211;  0.250
         11.219;  0.260
         11.227;  0.260
         11.234;  0.240
         11.242;  0.220
         11.250;  0.190
         11.258;  0.160
         11.266;  0.120
         11.273;  0.070
         11.281;  0.040
         11.289;  0.040
         11.297;  0.020
         11.305;  0.020
         11.312;  0.030
         11.320;  0.040
         11.328;  0.030
         11.336;  0.040
         11.344;  0.040
         11.352;  0.040
         11.359;  0.040
         11.367;  0.030
         11.375;  0.030
         11.383;  0.040
         11.391;  0.040
         11.398;  0.030
         11.406;  0.050
         11.414;  0.050
         11.422;  0.050
         11.430;  0.050
         11.438;  0.050
         11.445;  0.060
         11.453;  0.060
         11.461;  0.060
         11.469;  0.040
         11.477;  0.060
         11.484;  0.060
         11.492;  0.030
         11.500;  0.050
         11.508;  0.040
         11.516;  0.030
         11.523;  0.020
         11.531;  0.020
         11.539;  0.020
         11.547;  0.000
         11.555;  0.020
         11.562;  0.000
         11.570;  0.010
         11.578;  0.000
         11.586;  0.010
         11.594;  0.000
         11.602;  0.010
         11.609;  0.010
         11.617;  0.010
         11.625;  0.000
         11.633;  0.000
         11.641;  0.000
         11.648;  0.000
         11.656;  0.010
         11.664;  0.060
         11.672;  0.060
         11.680;  0.050
         11.688;  0.100
         11.695;  0.140
         11.703;  0.160
         11.711;  0.060
         11.719;  0.030
         11.727; -0.080
         11.734; -0.120
         11.742; -0.110
         11.750; -0.090
         11.758; -0.080
         11.766; -0.080
         11.773; -0.100
         11.781; -0.090
         11.789; -0.100
         11.797;  0.020
         11.805;  0.390
         11.812;  0.760
         11.820; -1.100
         11.828; -1.850
         11.836; -1.540
         11.844; -1.230
         11.852; -0.510
         11.859; -0.140
         11.867; -0.040
         11.875; -0.030
         11.883; -0.020
         11.891;  0.030
         11.898;  0.040
         11.906;  0.060
         11.914;  0.070
         11.922;  0.090
         11.930;  0.090
         11.938;  0.100
         11.945;  0.120
         11.953;  0.130
         11.961;  0.150
         11.969;  0.150
         11.977;  0.170
         11.984;  0.190
         11.992;  0.180
         12.000;  0.200
         12.008;  0.210
         12.016;  0.230
         12.023;  0.240
         12.031;  0.240
         12.039;  0.230
         12.047;  0.210
         12.055;  0.190
         12.062;  0.190
         12.070;  0.140
         12.078;  0.090
         12.086;  0.080
         12.094;  0.040
         12.102;  0.010
         12.109;  0.020
         12.117;  0.020
         12.125;  0.030
         12.133;  0.010
         12.141;  0.030
         12.148;  0.050
         12.156;  0.030
         12.164;  0.040
         12.172;  0.050
         12.180;  0.040
         12.188;  0.030
         12.195;  0.040
         12.203;  0.050
         12.211;  0.040
         12.219;  0.050
         12.227;  0.070
         12.234;  0.060
         12.242;  0.050
         12.250;  0.060
         12.258;  0.070
         12.266;  0.070
         12.273;  0.060
         12.281;  0.060
         12.289;  0.040
         12.297;  0.030
         12.305;  0.020
         12.312;  0.020
         12.320;  0.000
         12.328; -0.010
         12.336;  0.000
         12.344; -0.010
         12.352; -0.020
         12.359; -0.030
         12.367; -0.040
         12.375; -0.040
         12.383; -0.050
         12.391; -0.030
         12.398; -0.040
         12.406; -0.050
         12.414; -0.060
         12.422; -0.060
         12.430; -0.070
         12.438; -0.080
         12.445; -0.070
         12.453; -0.090
         12.461; -0.090
         12.469; -0.080
         12.477; -0.050
         12.484; -0.010
         12.492; -0.040
         12.500;  0.040
         12.508;  0.040
         12.516;  0.100
         12.523;  0.010
         12.531; -0.030
         12.539; -0.070
         12.547; -0.190
         12.555; -0.160
         12.562; -0.170
         12.570; -0.140
         12.578; -0.140
         12.586; -0.130
         12.594; -0.130
         12.602; -0.140
         12.609; -0.110
         12.617;  0.240
         12.625;  0.470
         12.633;  0.210
         12.641; -1.740
         12.648; -1.800
         12.656; -1.150
         12.664; -0.750
         12.672; -0.380
         12.680; -0.070
         12.688; -0.080
         12.695; -0.030
         12.703; -0.020
         12.711; -0.010
         12.719;  0.000
         12.727;  0.020
         12.734;  0.040
         12.742;  0.030
         12.750;  0.060
         12.758;  0.080
         12.766;  0.090
         12.773;  0.100
         12.781;  0.120
         12.789;  0.140
         12.797;  0.120
         12.805;  0.130
         12.812;  0.150
         12.820;  0.150
         12.828;  0.160
         12.836;  0.160
         12.844;  0.180
         12.852;  0.130
         12.859;  0.140
         12.867;  0.110
         12.875;  0.080
         12.883;  0.060
         12.891;  0.080
         12.898;  0.030
         12.906;  0.010
         12.914; -0.010
         12.922; -0.020
         12.930; -0.030
         12.938; -0.030
         12.945; -0.010
         12.953; -0.010
         12.961; -0.010
         12.969; -0.010
         12.977; -0.010
         12.984; -0.030
         12.992; -0.010
         13.000;  0.010
         13.008;  0.020
         13.016;  0.000
         13.023; -0.010
         13.031;  0.010
         13.039;  0.020
         13.047;  0.010
         13.055;  0.020
         13.062;  0.020
         13.070;  0.040
         13.078;  0.020
         13.086;  0.020
         13.094;  0.010
         13.102;  0.000
         13.109;  0.020
         13.117; -0.010
         13.125;  0.000
         13.133; -0.030
         13.141; -0.030
         13.148;  0.000
         13.156;  0.000
         13.164; -0.020
         13.172; -0.010
         13.180; -0.020
         13.188; -0.030
         13.195; -0.020
         13.203; -0.030
         13.211; -0.020
         13.219; -0.040
         13.227; -0.030
         13.234; -0.030
         13.242; -0.030
         13.250; -0.030
         13.258; -0.040
         13.266; -0.010
         13.273;  0.040
         13.281;  0.000
         13.289;  0.080
         13.297;  0.080
         13.305;  0.160
         13.312;  0.100
         13.320;  0.050
         13.328;  0.000
         13.336; -0.110
         13.344; -0.110
         13.352; -0.120
         13.359; -0.090
         13.367; -0.100
         13.375; -0.110
         13.383; -0.120
         13.391; -0.100
         13.398; -0.120
         13.406;  0.150
         13.414;  0.470
         13.422;  0.690
         13.430; -1.180
         13.438; -1.540
         13.445; -1.190
         13.453; -0.850
         13.461; -0.530
         13.469; -0.090
         13.477; -0.060
         13.484; -0.030
         13.492; -0.010
         13.500;  0.010
         13.508;  0.040
         13.516;  0.040
         13.523;  0.050
         13.531;  0.070
         13.539;  0.060
         13.547;  0.070
         13.555;  0.090
         13.562;  0.100
         13.570;  0.100
         13.578;  0.130
         13.586;  0.130
         13.594;  0.150
         13.602;  0.160
         13.609;  0.190
         13.617;  0.200
         13.625;  0.220
         13.633;  0.200
         13.641;  0.210
         13.648;  0.210
         13.656;  0.180
         13.664;  0.170
         13.672;  0.150
         13.680;  0.110
         13.688;  0.080
         13.695;  0.050
         13.703;  0.040
         13.711;  0.030
         13.719;  0.040
         13.727;  0.040
         13.734;  0.030
         13.742;  0.030
         13.750;  0.030
         13.758;  0.050
         13.766;  0.050
         13.773;  0.050
         13.781;  0.050
         13.789;  0.050
         13.797;  0.060
         13.805;  0.070
         13.812;  0.070
         13.820;  0.070
         13.828;  0.080
         13.836;  0.070
         13.844;  0.060
         13.852;  0.060
         13.859;  0.060
         13.867;  0.060
         13.875;  0.050
         13.883;  0.050
         13.891;  0.050
         13.898;  0.040
         13.906;  0.020
         13.914;  0.030
         13.922;  0.030
         13.930;  0.010
         13.938;  0.020
         13.945;  0.010
         13.953;  0.000
         13.961;  0.000
         13.969;  0.010
         13.977; -0.010
         13.984; -0.010
         13.992;  0.000
         14.000; -0.020
         14.008; -0.020
         14.016; -0.030
         14.023; -0.010
         14.031; -0.030
         14.039; -0.030
         14.047; -0.030
         14.055; -0.040
         14.062; -0.040
         14.070; -0.030
         14.078;  0.030
         14.086;  0.030
         14.094;  0.050
         14.102;  0.060
         14.109;  0.140
         14.117;  0.140
         14.125;  0.040
         14.133;  0.020
         14.141; -0.070
         14.148; -0.120
         14.156; -0.100
         14.164; -0.090
         14.172; -0.070
         14.180; -0.080
         14.188; -0.080
         14.195; -0.070
         14.203; -0.070
         14.211;  0.090
         14.219;  0.430
         14.227;  0.820
         14.234; -1.200
         14.242; -1.890
         14.250; -1.560
         14.258; -1.260
         14.266; -0.470
         14.273; -0.100
         14.281; -0.020
         14.289; -0.020
         14.297;  0.030
         14.305;  0.050
         14.312;  0.050
         14.320;  0.070
         14.328;  0.090
         14.336;  0.090
         14.344;  0.100
         14.352;  0.110
         14.359;  0.130
         14.367;  0.130
         14.375;  0.140
         14.383;  0.160
         14.391;  0.190
         14.398;  0.180
         14.406;  0.220
         14.414;  0.230
         14.422;  0.240
         14.430;  0.260
         14.438;  0.280
         14.445;  0.280
         14.453;  0.260
         14.461;  0.250
         14.469;  0.240
         14.477;  0.210
         14.484;  0.150
         14.492;  0.120
         14.500;  0.070
         14.508;  0.030
         14.516;  0.010
         14.523;  0.020
         14.531;  0.010
         14.539;  0.010
         14.547;  0.020
         14.555;  0.020
         14.562;  0.040
         14.570;  0.020
         14.578;  0.030
         14.586;  0.020
         14.594;  0.030
         14.602;  0.020
         14.609;  0.040
         14.617;  0.020
         14.625;  0.040
         14.633;  0.040
         14.641;  0.040
         14.648;  0.050
         14.656;  0.050
         14.664;  0.050
         14.672;  0.060
         14.680;  0.050
         14.688;  0.060
         14.695;  0.070
         14.703;  0.050
         14.711;  0.060
         14.719;  0.050
         14.727;  0.030
         14.734;  0.020
         14.742;  0.040
         14.750;  0.030
         14.758;  0.020
         14.766;  0.000
         14.773;  0.000
         14.781;  0.000
         14.789;  0.000
         14.797;  0.000
         14.805;  0.010
         14.812;  0.000
         14.820; -0.010
         14.828;  0.000
         14.836;  0.000
         14.844; -0.010
         14.852; -0.010
         14.859;  0.000
         14.867; -0.010
         14.875;  0.000
         14.883;  0.040
         14.891;  0.060
         14.898;  0.040
         14.906;  0.120
         14.914;  0.140
         14.922;  0.180
         14.930;  0.070
         14.938;  0.050
         14.945; -0.030
         14.953; -0.110
         14.961; -0.080
         14.969; -0.100
         14.977; -0.080
         14.984; -0.070
         14.992; -0.080
         15.000; -0.070
         15.008; -0.080
         15.016; -0.050
         15.023;  0.360
         15.031;  0.550
         15.039; -0.240
         15.047; -1.830
         15.055; -1.830
         15.062; -1.170
         15.070; -0.620
         15.078; -0.260
         15.086; -0.020
         15.094; -0.020
         15.102;  0.020
         15.109;  0.040
         15.117;  0.050
         15.125;  0.060
         15.133;  0.080
         15.141;  0.090
         15.148;  0.090
         15.156;  0.100
         15.164;  0.120
         15.172;  0.120
         15.180;  0.130
         15.188;  0.150
         15.195;  0.180
         15.203;  0.180
         15.211;  0.200
         15.219;  0.220
         15.227;  0.230
         15.234;  0.240
         15.242;  0.260
         15.250;  0.260
         15.258;  0.240
         15.266;  0.220
         15.273;  0.190
         15.281;  0.170
         15.289;  0.130
         15.297;  0.090
         15.305;  0.060
         15.312;  0.030
         15.320;  0.000
         15.328;  0.000
         15.336; -0.010
         15.344; -0.010
         15.352;  0.000
         15.359;  0.030
         15.367;  0.000
         15.375;  0.020
         15.383;  0.020
         15.391;  0.010
         15.398;  0.010
         15.406;  0.010
         15.414;  0.020
         15.422;  0.020
         15.430;  0.020
         15.438;  0.010
         15.445;  0.020
         15.453;  0.010
         15.461;  0.030
         15.469;  0.020
         15.477;  0.020
         15.484;  0.020
         15.492;  0.030
         15.500;  0.020
         15.508;  0.000
         15.516;  0.030
         15.523;  0.000
         15.531;  0.000
         15.539; -0.020
         15.547; -0.010
         15.555; -0.040
         15.562; -0.030
         15.570; -0.030
         15.578; -0.040
         15.586; -0.030
         15.594; -0.050
         15.602; -0.050
         15.609; -0.040
         15.617; -0.040
         15.625; -0.040
         15.633; -0.040
         15.641; -0.030
         15.648; -0.030
         15.656; -0.020
         15.664; -0.010
         15.672;  0.020
         15.680;  0.040
         15.688;  0.030
         15.695;  0.100
         15.703;  0.100
         15.711;  0.170
         15.719;  0.070
         15.727;  0.040
         15.734; -0.050
         15.742; -0.100
         15.750; -0.090
         15.758; -0.110
         15.766; -0.070
         15.773; -0.060
         15.781; -0.080
         15.789; -0.080
         15.797; -0.090
         15.805; -0.070
         15.812;  0.330
         15.820;  0.540
         15.828; -0.150
         15.836; -1.770
         15.844; -1.750
         15.852; -1.140
         15.859; -0.600
         15.867; -0.280
         15.875; -0.020
         15.883; -0.030
         15.891; -0.010
         15.898;  0.010
         15.906;  0.040
         15.914;  0.050
         15.922;  0.050
         15.930;  0.070
         15.938;  0.060
         15.945;  0.070
         15.953;  0.080
         15.961;  0.090
         15.969;  0.110
         15.977;  0.100
         15.984;  0.130
         15.992;  0.150
         16.000;  0.140
         16.008;  0.140
         16.016;  0.160
         16.023;  0.160
         16.031;  0.170
         16.039;  0.170
         16.047;  0.160
         16.055;  0.130
         16.062;  0.120
         16.070;  0.100
         16.078;  0.090
         16.086;  0.050
         16.094;  0.020
         16.102;  0.010
         16.109;  0.000
         16.117; -0.010
         16.125;  0.000
         16.133;  0.000
         16.141; -0.010
         16.148;  0.020
         16.156;  0.040
         16.164;  0.040
         16.172;  0.030
         16.180;  0.030
         16.188;  0.030
         16.195;  0.040
         16.203;  0.050
         16.211;  0.050
         16.219;  0.050
         16.227;  0.050
         16.234;  0.060
         16.242;  0.070
         16.250;  0.050
         16.258;  0.060
         16.266;  0.060
         16.273;  0.050
         16.281;  0.050
         16.289;  0.040
         16.297;  0.040
         16.305;  0.010
         16.312;  0.030
         16.320;  0.040
         16.328;  0.020
         16.336;  0.020
         16.344;  0.010
         16.352;  0.000
         16.359;  0.000
         16.367; -0.020
         16.375; -0.010
         16.383; -0.010
         16.391; -0.010
         16.398; -0.010
         16.406; -0.010
         16.414; -0.010
         16.422; -0.020
         16.430;  0.000
         16.438; -0.010
         16.445; -0.020
         16.453;  0.000
         16.461;  0.040
         16.469;  0.060
         16.477;  0.030
         16.484;  0.110
         16.492;  0.150
         16.500;  0.190
         16.508;  0.120
         16.516;  0.090
         16.523;  0.010
         16.531; -0.080
         16.539; -0.050
         16.547; -0.040
         16.555; -0.080
         16.562; -0.040
         16.570; -0.060
         16.578; -0.070
         16.586; -0.090
         16.594; -0.010
         16.602;  0.300
         16.609;  0.610
         16.617; -0.010
         16.625; -1.500
         16.633; -1.440
         16.641; -1.120
         16.648; -0.620
         16.656; -0.340
         16.664; -0.040
         16.672; -0.040
         16.680; -0.030
         16.688;  0.010
         16.695;  0.020
         16.703;  0.020
         16.711;  0.050
         16.719;  0.040
         16.727;  0.060
         16.734;  0.070
         16.742;  0.080
         16.750;  0.070
         16.758;  0.100
         16.766;  0.100
         16.773;  0.110
         16.781;  0.130
         16.789;  0.140
         16.797;  0.160
         16.805;  0.160
         16.812;  0.180
         16.820;  0.170
         16.828;  0.190
         16.836;  0.170
         16.844;  0.180
         16.852;  0.160
         16.859;  0.140
         16.867;  0.120
         16.875;  0.110
         16.883;  0.060
         16.891;  0.040
         16.898;  0.040
         16.906;  0.020
         16.914;  0.010
         16.922;  0.030
         16.930;  0.020
         16.938;  0.030
         16.945;  0.050
         16.953;  0.050
         16.961;  0.070
         16.969;  0.060
         16.977;  0.070
         16.984;  0.080
         16.992;  0.080
         17.000;  0.090
         17.008;  0.100
         17.016;  0.100
         17.023;  0.090
         17.031;  0.090
         17.039;  0.100
         17.047;  0.090
         17.055;  0.090
         17.062;  0.090
         17.070;  0.070
         17.078;  0.070
         17.086;  0.060
         17.094;  0.070
         17.102;  0.060
         17.109;  0.050
         17.117;  0.050
         17.125;  0.040
         17.133;  0.050
         17.141;  0.030
         17.148;  0.040
         17.156;  0.020
         17.164;  0.030
         17.172;  0.020
         17.180;  0.030
         17.188;  0.030
         17.195;  0.010
         17.203;  0.010
         17.211;  0.020
         17.219;  0.010
         17.227;  0.000
         17.234;  0.010
         17.242;  0.020
         17.250;  0.070
         17.258;  0.050
         17.266;  0.110
         17.273;  0.110
         17.281;  0.200
         17.289;  0.170
         17.297;  0.080
         17.305;  0.040
         17.312; -0.050
         17.320; -0.100
         17.328; -0.070
         17.336; -0.060
         17.344; -0.060
         17.352; -0.050
         17.359; -0.060
         17.367; -0.040
         17.375; -0.050
         17.383;  0.080
         17.391;  0.440
         17.398;  0.770
         17.406; -0.850
         17.414; -1.850
         17.422; -1.670
         17.430; -1.230
         17.438; -0.500
         17.445; -0.140
         17.453;  0.010
         17.461;  0.020
         17.469;  0.050
         17.477;  0.080
         17.484;  0.090
         17.492;  0.100
         17.500;  0.110
         17.508;  0.120
         17.516;  0.140
         17.523;  0.140
         17.531;  0.150
         17.539;  0.170
         17.547;  0.180
         17.555;  0.190
         17.562;  0.220
         17.570;  0.230
         17.578;  0.250
         17.586;  0.260
         17.594;  0.280
         17.602;  0.300
         17.609;  0.300
         17.617;  0.310
         17.625;  0.310
         17.633;  0.290
         17.641;  0.270
         17.648;  0.250
         17.656;  0.210
         17.664;  0.160
         17.672;  0.130
         17.680;  0.090
         17.688;  0.080
         17.695;  0.040
         17.703;  0.060
         17.711;  0.060
         17.719;  0.060
         17.727;  0.080
         17.734;  0.090
         17.742;  0.070
         17.750;  0.080
         17.758;  0.070
         17.766;  0.070
         17.773;  0.070
         17.781;  0.080
         17.789;  0.070
         17.797;  0.080
         17.805;  0.070
         17.812;  0.080
         17.820;  0.090
         17.828;  0.070
         17.836;  0.080
         17.844;  0.090
         17.852;  0.090
         17.859;  0.090
         17.867;  0.090
         17.875;  0.090
         17.883;  0.070
         17.891;  0.070
         17.898;  0.060
         17.906;  0.050
         17.914;  0.030
         17.922;  0.040
         17.930;  0.020
         17.938;  0.020
         17.945;  0.010
         17.953;  0.010
         17.961;  0.000
         17.969;  0.000
         17.977;  0.000
         17.984;  0.000
         17.992;  0.000
         18.000; -0.020
         18.008; -0.010
         18.016; -0.020
         18.023; -0.010
         18.031;  0.000
         18.039;  0.040
         18.047;  0.060
         18.055;  0.040
         18.062;  0.120
         18.070;  0.120
         18.078;  0.180
         18.086;  0.080
         18.094;  0.040
         18.102; -0.050
         18.109; -0.140
         18.117; -0.110
         18.125; -0.120
         18.133; -0.100
         18.141; -0.090
         18.148; -0.100
         18.156; -0.090
         18.164; -0.110
         18.172; -0.090
         18.180;  0.260
         18.188;  0.450
         18.195;  0.370
         18.203; -1.820
         18.211; -1.940
         18.219; -1.190
         18.227; -0.840
         18.234; -0.360
         18.242; -0.030
         18.250; -0.040
         18.258; -0.020
         18.266;  0.000
         18.273;  0.040
         18.281;  0.050
         18.289;  0.060
         18.297;  0.080
         18.305;  0.070
         18.312;  0.080
         18.320;  0.090
         18.328;  0.100
         18.336;  0.110
         18.344;  0.140
         18.352;  0.140
         18.359;  0.150
         18.367;  0.170
         18.375;  0.190
         18.383;  0.190
         18.391;  0.210
         18.398;  0.220
         18.406;  0.220
         18.414;  0.210
         18.422;  0.200
         18.430;  0.190
         18.438;  0.160
         18.445;  0.130
         18.453;  0.100
         18.461;  0.050
         18.469;  0.010
         18.477;  0.010
         18.484; -0.010
         18.492; -0.010
         18.500; -0.010
         18.508;  0.010
         18.516;  0.010
         18.523;  0.010
         18.531;  0.010
         18.539;  0.020
         18.547;  0.000
         18.555;  0.010
         18.562;  0.010
         18.570;  0.010
         18.578;  0.010
         18.586;  0.010
         18.594;  0.020
         18.602;  0.030
         18.609;  0.040
         18.617;  0.030
         18.625;  0.040
         18.633;  0.030
         18.641;  0.040
         18.648;  0.050
         18.656;  0.040
         18.664;  0.020
         18.672;  0.030
         18.680;  0.030
         18.688;  0.020
         18.695;  0.020
         18.703;  0.030
         18.711;  0.010
         18.719;  0.010
         18.727;  0.010
         18.734;  0.000
         18.742;  0.000
         18.750; -0.010
         18.758; -0.010
         18.766; -0.010
         18.773; -0.030
         18.781; -0.010
         18.789; -0.020
         18.797; -0.020
         18.805; -0.030
         18.812; -0.010
         18.820;  0.040
         18.828;  0.050
         18.836;  0.050
         18.844;  0.100
         18.852;  0.200
         18.859;  0.140
         18.867;  0.090
         18.875;  0.050
         18.883; -0.080
         18.891; -0.090
         18.898; -0.100
         18.906; -0.090
         18.914; -0.080
         18.922; -0.090
         18.930; -0.100
         18.938; -0.100
         18.945; -0.100
         18.953;  0.050
         18.961;  0.380
         18.969;  0.720
         18.977; -1.190
         18.984; -1.870
         18.992; -1.490
         19.000; -1.230
         19.008; -0.500
         19.016; -0.140
         19.023; -0.070
         19.031; -0.060
         19.039; -0.050
         19.047; -0.010
         19.055;  0.010
         19.062;  0.020
         19.070;  0.010
         19.078;  0.030
         19.086;  0.040
         19.094;  0.050
         19.102;  0.070
         19.109;  0.070
         19.117;  0.090
         19.125;  0.100
         19.133;  0.100
         19.141;  0.120
         19.148;  0.140
         19.156;  0.150
         19.164;  0.160
         19.172;  0.170
         19.180;  0.140
         19.188;  0.160
         19.195;  0.160
         19.203;  0.140
         19.211;  0.110
         19.219;  0.100
         19.227;  0.080
         19.234;  0.060
         19.242;  0.020
         19.250; -0.010
         19.258;  0.000
         19.266;  0.000
         19.273;  0.000
         19.281;  0.000
         19.289;  0.000
         19.297;  0.020
         19.305;  0.010
         19.312;  0.040
         19.320;  0.030
         19.328;  0.030
         19.336;  0.010
         19.344;  0.040
         19.352;  0.030
         19.359;  0.030
         19.367;  0.030
         19.375;  0.030
         19.383;  0.020
         19.391;  0.030
         19.398;  0.030
         19.406;  0.020
         19.414;  0.030
         19.422;  0.030
         19.430;  0.010
         19.438;  0.020
         19.445; -0.010
         19.453;  0.020
         19.461;  0.010
         19.469; -0.010
         19.477; -0.020
         19.484; -0.020
         19.492; -0.030
         19.500; -0.040
         19.508; -0.040
         19.516; -0.040
         19.523; -0.060
         19.531; -0.040
         19.539; -0.060
         19.547; -0.040
         19.555; -0.060
         19.562; -0.060
         19.570; -0.060
         19.578; -0.060
         19.586; -0.070
         19.594; -0.060
         19.602; -0.020
         19.609;  0.010
         19.617; -0.010
         19.625;  0.070
         19.633;  0.090
         19.641;  0.120
         19.648;  0.100
         19.656;  0.030
         19.664; -0.020
         19.672; -0.110
         19.680; -0.130
         19.688; -0.110
         19.695; -0.120
         19.703; -0.120
         19.711; -0.130
         19.719; -0.120
         19.727; -0.150
         19.734; -0.150
         19.742;  0.150
         19.750;  0.450
         19.758;  0.570
         19.766; -1.340
         19.773; -1.580
         19.781; -1.200
         19.789; -0.860
         19.797; -0.570
         19.805; -0.130
         19.812; -0.100
         19.820; -0.060
         19.828; -0.070
         19.836; -0.040
         19.844; -0.040
         19.852; -0.010
         19.859; -0.010
         19.867;  0.010
         19.875;  0.010
         19.883;  0.020
         19.891;  0.030
         19.898;  0.050
         19.906;  0.060
         19.914;  0.060
         19.922;  0.090
         19.930;  0.100
         19.938;  0.100
         19.945;  0.120
         19.953;  0.120
         19.961;  0.130
         19.969;  0.130
         19.977;  0.120
         19.984;  0.160
         19.992;  0.140
         20.000;  0.120
         20.008;  0.090
         20.016;  0.080
         20.023;  0.070
         20.031;  0.020
         20.039;  0.010
         20.047;  0.000
         20.055; -0.020
         20.062; -0.030
         20.070; -0.020
         20.078; -0.030
         20.086; -0.030
         20.094; -0.010
         20.102;  0.000
         20.109; -0.020
         20.117; -0.010
         20.125;  0.020
         20.133;  0.020
         20.141;  0.020
         20.148;  0.020
         20.156;  0.030
         20.164;  0.020
         20.172;  0.010
         20.180;  0.020
         20.188;  0.020
         20.195;  0.010
         20.203;  0.010
         20.211;  0.000
         20.219; -0.010
         20.227; -0.010
         20.234;  0.010
         20.242;  0.000
         20.250; -0.020
         20.258;  0.000
         20.266; -0.020
         20.273; -0.020
         20.281; -0.030
         20.289; -0.020
         20.297; -0.020
         20.305; -0.030
         20.312; -0.020
         20.320; -0.040
         20.328; -0.020
         20.336; -0.030
         20.344; -0.020
         20.352; -0.020
         20.359;  0.040
         20.367;  0.020
         20.375;  0.070
         20.383;  0.090
         20.391;  0.180
         20.398;  0.120
         20.406;  0.100
         20.414;  0.030
         20.422; -0.070
         20.430; -0.080
         20.438; -0.080
         20.445; -0.090
         20.453; -0.070
         20.461; -0.080
         20.469; -0.080
         20.477; -0.090
         20.484; -0.060
         20.492;  0.230
         20.500;  0.540
         20.508;  0.690
         20.516; -1.640
         20.523; -1.920
         20.531; -1.370
         20.539; -1.100
         20.547; -0.480
         20.555; -0.050
         20.562; -0.030
         20.570;  0.000
         20.578;  0.020
         20.586;  0.020
         20.594;  0.060
         20.602;  0.070
         20.609;  0.070
         20.617;  0.070
         20.625;  0.090
         20.633;  0.100
         20.641;  0.120
         20.648;  0.140
         20.656;  0.160
         20.664;  0.180
         20.672;  0.190
         20.680;  0.220
         20.688;  0.240
         20.695;  0.250
         20.703;  0.270
         20.711;  0.290
         20.719;  0.290
         20.727;  0.290
         20.734;  0.290
         20.742;  0.260
         20.750;  0.250
         20.758;  0.210
         20.766;  0.170
         20.773;  0.120
         20.781;  0.070
         20.789;  0.040
         20.797;  0.040
         20.805;  0.010
         20.812;  0.020
         20.820;  0.020
         20.828;  0.030
         20.836;  0.010
         20.844;  0.040
         20.852;  0.030
         20.859;  0.040
         20.867;  0.030
         20.875;  0.030
         20.883;  0.040
         20.891;  0.030
         20.898;  0.050
         20.906;  0.060
         20.914;  0.060
         20.922;  0.060
         20.930;  0.070
         20.938;  0.070
         20.945;  0.070
         20.953;  0.070
         20.961;  0.080
         20.969;  0.060
         20.977;  0.060
         20.984;  0.060
         20.992;  0.050
         21.000;  0.050
         21.008;  0.050
         21.016;  0.040
         21.023;  0.040
         21.031;  0.030
         21.039;  0.030
         21.047;  0.020
         21.055;  0.000
         21.062;  0.020
         21.070;  0.000
         21.078;  0.000
         21.086; -0.010
         21.094;  0.000
         21.102; -0.020
         21.109;  0.000
         21.117;  0.000
         21.125;  0.040
         21.133;  0.060
         21.141;  0.040
         21.148;  0.090
         21.156;  0.190
         21.164;  0.140
         21.172;  0.100
         21.180;  0.060
         21.188; -0.060
         21.195; -0.110
         21.203; -0.080
         21.211; -0.070
         21.219; -0.070
         21.227; -0.080
         21.234; -0.080
         21.242; -0.090
         21.250; -0.090
         21.258;  0.040
         21.266;  0.410
         21.273;  0.710
         21.281; -1.080
         21.289; -1.980
         21.297; -1.710
         21.305; -1.300
         21.312; -0.500
         21.320; -0.150
         21.328; -0.030
         21.336; -0.030
         21.344;  0.010
         21.352;  0.020
         21.359;  0.050
         21.367;  0.070
         21.375;  0.080
         21.383;  0.090
         21.391;  0.090
         21.398;  0.100
         21.406;  0.120
         21.414;  0.130
         21.422;  0.140
         21.430;  0.170
         21.438;  0.180
         21.445;  0.180
         21.453;  0.200
         21.461;  0.220
         21.469;  0.240
         21.477;  0.260
         21.484;  0.270
         21.492;  0.250
         21.500;  0.230
         21.508;  0.240
         21.516;  0.210
         21.523;  0.180
         21.531;  0.150
         21.539;  0.100
         21.547;  0.060
         21.555;  0.030
         21.562;  0.010
         21.570;  0.000
         21.578;  0.000
         21.586;  0.000
         21.594;  0.020
         21.602;  0.020
         21.609;  0.010
         21.617;  0.030
         21.625;  0.040
         21.633;  0.020
         21.641;  0.010
         21.648;  0.030
         21.656;  0.020
         21.664;  0.020
         21.672;  0.040
         21.680;  0.040
         21.688;  0.050
         21.695;  0.050
         21.703;  0.060
         21.711;  0.060
         21.719;  0.070
         21.727;  0.060
         21.734;  0.060
         21.742;  0.060
         21.750;  0.060
         21.758;  0.060
         21.766;  0.060
         21.773;  0.030
         21.781;  0.040
         21.789;  0.030
         21.797;  0.030
         21.805;  0.010
         21.812;  0.010
         21.820;  0.010
         21.828;  0.020
         21.836; -0.010
         21.844;  0.000
         21.852; -0.010
         21.859; -0.010
         21.867; -0.010
         21.875;  0.010
         21.883;  0.020
         21.891;  0.060
         21.898;  0.040
         21.906;  0.100
         21.914;  0.180
         21.922;  0.150
         21.930;  0.130
         21.938;  0.050
         21.945; -0.050
         21.953; -0.080
         21.961; -0.110
         21.969; -0.080
         21.977; -0.090
         21.984; -0.090
         21.992; -0.100
         22.000; -0.100
         22.008; -0.110
         22.016; -0.050
         22.023;  0.320
         22.031;  0.560
         22.039; -0.610
         22.047; -1.930
         22.055; -1.860
         22.062; -1.270
         22.070; -0.600
         22.078; -0.250
         22.086; -0.050
         22.094; -0.040
         22.102;  0.000
         22.109;  0.000
         22.117;  0.040
         22.125;  0.040
         22.133;  0.060
         22.141;  0.050
         22.148;  0.080
         22.156;  0.100
         22.164;  0.100
         22.172;  0.090
         22.180;  0.110
         22.188;  0.130
         22.195;  0.130
         22.203;  0.150
         22.211;  0.160
         22.219;  0.180
         22.227;  0.190
         22.234;  0.200
         22.242;  0.200
         22.250;  0.200
         22.258;  0.180
         22.266;  0.170
         22.273;  0.140
         22.281;  0.110
         22.289;  0.090
         22.297;  0.040
         22.305;  0.020
         22.312; -0.010
         22.320; -0.030
         22.328; -0.050
         22.336; -0.030
         22.344; -0.020
         22.352; -0.010
         22.359; -0.010
         22.367; -0.010
         22.375; -0.010
         22.383;  0.000
         22.391;  0.000
         22.398;  0.000
         22.406;  0.000
         22.414; -0.010
         22.422;  0.000
         22.430;  0.010
         22.438;  0.020
         22.445;  0.010
         22.453;  0.030
         22.461;  0.030
         22.469;  0.020
         22.477;  0.020
         22.484;  0.030
         22.492;  0.020
         22.500;  0.020
         22.508;  0.020
         22.516;  0.020
         22.523;  0.010
         22.531; -0.010
         22.539; -0.010
         22.547;  0.000
         22.555;  0.000
         22.562; -0.030
         22.570; -0.010
         22.578; -0.030
         22.586; -0.040
         22.594; -0.030
         22.602; -0.040
         22.609; -0.040
         22.617; -0.060
         22.625; -0.040
         22.633; -0.050
         22.641; -0.050
         22.648; -0.050
         22.656; -0.030
         22.664;  0.010
         22.672;  0.010
         22.680;  0.000
         22.688;  0.070
         22.695;  0.140
         22.703;  0.120
         22.711;  0.070
         22.719;  0.040
         22.727; -0.060
         22.734; -0.120
         22.742; -0.120
         22.750; -0.120
         22.758; -0.120
         22.766; -0.120
         22.773; -0.140
         22.781; -0.150
         22.789; -0.150
         22.797; -0.100
         22.805;  0.270
         22.812;  0.510
         22.820; -0.280
         22.828; -1.830
         22.836; -1.720
         22.844; -1.260
         22.852; -0.650
         22.859; -0.310
         22.867; -0.090
         22.875; -0.080
         22.883; -0.050
         22.891; -0.030
         22.898; -0.020
         22.906;  0.000
         22.914;  0.010
         22.922;  0.030
         22.930;  0.020
         22.938;  0.040
         22.945;  0.050
         22.953;  0.050
         22.961;  0.070
         22.969;  0.090
         22.977;  0.100
         22.984;  0.090
         22.992;  0.100
         23.000;  0.120
         23.008;  0.130
         23.016;  0.140
         23.023;  0.140
         23.031;  0.150
         23.039;  0.140
         23.047;  0.110
         23.055;  0.110
         23.062;  0.100
         23.070;  0.110
         23.078;  0.070
         23.086;  0.040
         23.094;  0.020
         23.102;  0.000
         23.109;  0.000
         23.117;  0.000
         23.125; -0.030
         23.133; -0.020
         23.141;  0.000
         23.148; -0.020
         23.156;  0.000
         23.164;  0.000
         23.172; -0.020
         23.180;  0.000
         23.188;  0.000
         23.195;  0.000
         23.203;  0.010
         23.211; -0.010
         23.219;  0.020
         23.227;  0.010
         23.234;  0.010
         23.242;  0.000
         23.250;  0.010
         23.258;  0.010
         23.266;  0.000
         23.273;  0.010
         23.281; -0.020
         23.289; -0.020
         23.297; -0.010
         23.305; -0.030
         23.312; -0.030
         23.320; -0.040
         23.328; -0.030
         23.336; -0.050
         23.344; -0.060
         23.352; -0.050
         23.359; -0.050
         23.367; -0.090
         23.375; -0.060
         23.383; -0.070
         23.391; -0.080
         23.398; -0.070
         23.406; -0.060
         23.414; -0.030
         23.422; -0.040
         23.430;  0.010
         23.438;  0.040
         23.445;  0.100
         23.453;  0.070
         23.461;  0.020
         23.469; -0.020
         23.477; -0.130
         23.484; -0.130
         23.492; -0.130
         23.500; -0.160
         23.508; -0.170
         23.516; -0.170
         23.523; -0.160
         23.531; -0.190
         23.539; -0.170
         23.547;  0.140
         23.555;  0.500
         23.562;  0.250
         23.570; -1.550
         23.578; -1.600
         23.586; -1.330
         23.594; -0.800
         23.602; -0.510
         23.609; -0.120
         23.617; -0.130
         23.625; -0.080
         23.633; -0.070
         23.641; -0.050
         23.648; -0.030
         23.656; -0.010
         23.664; -0.010
         23.672;  0.010
         23.680;  0.030
         23.688;  0.030
         23.695;  0.050
         23.703;  0.070
         23.711;  0.080
         23.719;  0.100
         23.727;  0.140
         23.734;  0.140
         23.742;  0.170
         23.750;  0.190
         23.758;  0.210
         23.766;  0.230
         23.773;  0.240
         23.781;  0.240
         23.789;  0.240
         23.797;  0.220
         23.805;  0.210
         23.812;  0.180
         23.820;  0.150
         23.828;  0.110
         23.836;  0.090
         23.844;  0.070
         23.852;  0.040
         23.859;  0.030
         23.867;  0.010
         23.875;  0.020
         23.883;  0.020
         23.891;  0.030
         23.898;  0.020
         23.906;  0.030
         23.914;  0.020
         23.922;  0.030
         23.930;  0.060
         23.938;  0.070
         23.945;  0.050
         23.953;  0.070
         23.961;  0.070
         23.969;  0.070
         23.977;  0.060
         23.984;  0.060
         23.992;  0.070
         24.000;  0.040
         24.008;  0.050
         24.016;  0.020
         24.023;  0.020
         24.031;  0.010
         24.039;  0.020
         24.047;  0.010
         24.055;  0.000
         24.062; -0.010
         24.070; -0.010
         24.078; -0.020
         24.086; -0.030
         24.094; -0.010
         24.102; -0.020
         24.109; -0.020
         24.117; -0.030
         24.125; -0.020
         24.133; -0.040
         24.141; -0.030
         24.148; -0.030
         24.156; -0.020
         24.164; -0.030
         24.172; -0.020
         24.180;  0.040
         24.188;  0.010
         24.195;  0.070
         24.203;  0.100
         24.211;  0.150
         24.219;  0.110
         24.227;  0.020
         24.234; -0.010
         24.242; -0.090
         24.250; -0.110
         24.258; -0.110
         24.266; -0.090
         24.273; -0.100
         24.281; -0.110
         24.289; -0.090
         24.297; -0.100
         24.305; -0.070
         24.312;  0.310
         24.320;  0.460
         24.328;  0.190
         24.336; -1.980
         24.344; -2.140
         24.352; -1.280
         24.359; -0.890
         24.367; -0.320
         24.375; -0.010
         24.383;  0.000
         24.391;  0.030
         24.398;  0.050
         24.406;  0.090
         24.414;  0.090
         24.422;  0.100
         24.430;  0.130
         24.438;  0.130
         24.445;  0.150
         24.453;  0.180
         24.461;  0.180
         24.469;  0.190
         24.477;  0.220
         24.484;  0.230
         24.492;  0.260
         24.500;  0.280
         24.508;  0.300
         24.516;  0.310
         24.523;  0.330
         24.531;  0.340
         24.539;  0.350
         24.547;  0.360
         24.555;  0.330
         24.562;  0.320
         24.570;  0.290
         24.578;  0.250
         24.586;  0.200
         24.594;  0.150
         24.602;  0.100
         24.609;  0.080
         24.617;  0.060
         24.625;  0.060
         24.633;  0.040
         24.641;  0.050
         24.648;  0.070
         24.656;  0.060
         24.664;  0.070
         24.672;  0.060
         24.680;  0.050
         24.688;  0.050
         24.695;  0.060
         24.703;  0.050
         24.711;  0.070
         24.719;  0.060
         24.727;  0.060
         24.734;  0.070
         24.742;  0.080
         24.750;  0.070
         24.758;  0.080
         24.766;  0.100
         24.773;  0.080
         24.781;  0.100
         24.789;  0.090
         24.797;  0.100
         24.805;  0.090
         24.812;  0.100
         24.820;  0.080
         24.828;  0.080
         24.836;  0.060
         24.844;  0.040
         24.852;  0.060
         24.859;  0.040
         24.867;  0.040
         24.875;  0.040
         24.883;  0.020
         24.891;  0.010
         24.898;  0.020
         24.906;  0.010
         24.914;  0.010
         24.922;  0.010
         24.930;  0.040
         24.938;  0.070
         24.945;  0.050
         24.953;  0.110
         24.961;  0.140
         24.969;  0.200
         24.977;  0.150
         24.984;  0.080
         24.992;  0.020
         25.000; -0.080
         25.008; -0.080
         25.016; -0.070
         25.023; -0.070
         25.031; -0.060
         25.039; -0.070
         25.047; -0.080
         25.055; -0.070
         25.062; -0.030
         25.070;  0.280
         25.078;  0.490
         25.086;  0.390
         25.094; -1.880
         25.102; -2.030
         25.109; -1.200
         25.117; -0.890
         25.125; -0.320
         25.133;  0.010
         25.141;  0.010
         25.148;  0.030
         25.156;  0.050
         25.164;  0.080
         25.172;  0.070
         25.180;  0.110
         25.188;  0.100
         25.195;  0.100
         25.203;  0.130
         25.211;  0.120
         25.219;  0.140
         25.227;  0.160
         25.234;  0.180
         25.242;  0.180
         25.250;  0.200
         25.258;  0.230
         25.266;  0.230
         25.273;  0.260
         25.281;  0.280
         25.289;  0.270
         25.297;  0.280
         25.305;  0.260
         25.312;  0.260
         25.320;  0.230
         25.328;  0.230
         25.336;  0.170
         25.344;  0.160
         25.352;  0.110
         25.359;  0.070
         25.367;  0.060
         25.375;  0.050
         25.383;  0.050
         25.391;  0.040
         25.398;  0.060
         25.406;  0.050
         25.414;  0.070
         25.422;  0.060
         25.430;  0.080
         25.438;  0.050
         25.445;  0.070
         25.453;  0.070
         25.461;  0.070
         25.469;  0.070
         25.477;  0.080
         25.484;  0.080
         25.492;  0.100
         25.500;  0.080
         25.508;  0.090
         25.516;  0.110
         25.523;  0.090
         25.531;  0.110
         25.539;  0.110
         25.547;  0.100
         25.555;  0.070
         25.562;  0.090
         25.570;  0.080
         25.578;  0.080
         25.586;  0.060
         25.594;  0.060
         25.602;  0.030
         25.609;  0.030
         25.617;  0.020
         25.625;  0.040
         25.633;  0.020
         25.641;  0.030
         25.648;  0.020
         25.656;  0.020
         25.664;  0.000
         25.672;  0.020
         25.680;  0.020
         25.688;  0.010
         25.695;  0.030
         25.703;  0.020
         25.711;  0.020
         25.719;  0.010
         25.727;  0.030
         25.734;  0.080
         25.742;  0.050
         25.750;  0.110
         25.758;  0.110
         25.766;  0.210
         25.773;  0.130
         25.781;  0.070
         25.789;  0.030
         25.797; -0.090
         25.805; -0.100
         25.812; -0.090
         25.820; -0.060
         25.828; -0.060
         25.836; -0.070
         25.844; -0.060
         25.852; -0.070
         25.859; -0.060
         25.867;  0.200
         25.875;  0.460
         25.883;  0.680
         25.891; -1.710
         25.898; -1.950
         25.906; -1.220
         25.914; -0.970
         25.922; -0.390
         25.930; -0.030
         25.938; -0.060
         25.945; -0.010
         25.953;  0.020
         25.961;  0.040
         25.969;  0.040
         25.977;  0.050
         25.984;  0.060
         25.992;  0.060
         26.000;  0.090
         26.008;  0.100
         26.016;  0.110
         26.023;  0.120
         26.031;  0.140
         26.039;  0.130
         26.047;  0.130
         26.055;  0.130
         26.062;  0.160
         26.070;  0.150
         26.078;  0.170
         26.086;  0.170
         26.094;  0.160
         26.102;  0.160
         26.109;  0.140
         26.117;  0.130
         26.125;  0.100
         26.133;  0.070
         26.141;  0.060
         26.148;  0.020
         26.156;  0.000
         26.164;  0.010
         26.172; -0.020
         26.180; -0.020
         26.188; -0.020
         26.195;  0.000
         26.203;  0.010
         26.211;  0.030
         26.219;  0.030
         26.227;  0.010
         26.234;  0.010
         26.242;  0.010
         26.250;  0.010
         26.258;  0.020
         26.266;  0.010
         26.273;  0.010
         26.281;  0.030
         26.289;  0.030
         26.297;  0.030
         26.305;  0.060
         26.312;  0.050
         26.320;  0.040
         26.328;  0.030
         26.336;  0.030
         26.344;  0.020
         26.352;  0.030
         26.359;  0.030
         26.367;  0.010
         26.375;  0.010
         26.383;  0.000
         26.391; -0.020
         26.398;  0.000
         26.406; -0.020
         26.414; -0.010
         26.422; -0.010
         26.430; -0.030
         26.438; -0.040
         26.445; -0.050
         26.453; -0.060
         26.461; -0.040
         26.469; -0.050
         26.477; -0.060
         26.484; -0.060
         26.492; -0.070
         26.500; -0.020
         26.508;  0.020
         26.516; -0.030
         26.523;  0.050
         26.531;  0.060
         26.539;  0.130
         26.547;  0.050
         26.555;  0.010
         26.562; -0.030
         26.570; -0.140
         26.578; -0.110
         26.586; -0.120
         26.594; -0.110
         26.602; -0.120
         26.609; -0.120
         26.617; -0.120
         26.625; -0.120
         26.633; -0.120
         26.641;  0.200
         26.648;  0.540
         26.656;  0.330
         26.664; -1.560
         26.672; -1.590
         26.680; -1.220
         26.688; -0.740
         26.695; -0.440
         26.703; -0.060
         26.711; -0.070
         26.719; -0.030
         26.727; -0.010
         26.734;  0.010
         26.742;  0.020
         26.750;  0.040
         26.758;  0.050
         26.766;  0.060
         26.773;  0.060
         26.781;  0.080
         26.789;  0.080
         26.797;  0.100
         26.805;  0.100
         26.812;  0.140
         26.820;  0.140
         26.828;  0.150
         26.836;  0.180
         26.844;  0.190
         26.852;  0.190
         26.859;  0.220
         26.867;  0.220
         26.875;  0.210
         26.883;  0.200
         26.891;  0.190
         26.898;  0.170
         26.906;  0.130
         26.914;  0.100
         26.922;  0.080
         26.930;  0.040
         26.938;  0.010
         26.945;  0.010
         26.953;  0.000
         26.961; -0.010
         26.969;  0.000
         26.977;  0.000
         26.984;  0.010
         26.992;  0.010
         27.000;  0.000
         27.008;  0.020
         27.016;  0.040
         27.023;  0.030
         27.031;  0.040
         27.039;  0.050
         27.047;  0.040
         27.055;  0.040
         27.062;  0.060
         27.070;  0.040
         27.078;  0.060
         27.086;  0.050
         27.094;  0.050
         27.102;  0.040
         27.109;  0.030
         27.117;  0.040
         27.125;  0.030
         27.133;  0.020
         27.141;  0.020
         27.148;  0.030
         27.156;  0.020
         27.164;  0.010
         27.172;  0.030
         27.180;  0.020
         27.188;  0.000
         27.195;  0.020
         27.203;  0.020
         27.211;  0.000
         27.219;  0.010
         27.227;  0.010
         27.234; -0.010
         27.242; -0.020
         27.250; -0.020
         27.258; -0.030
         27.266; -0.020
         27.273;  0.020
         27.281;  0.030
         27.289;  0.030
         27.297;  0.080
         27.305;  0.110
         27.312;  0.120
         27.320;  0.040
         27.328; -0.010
         27.336; -0.080
         27.344; -0.140
         27.352; -0.130
         27.359; -0.130
         27.367; -0.100
         27.375; -0.120
         27.383; -0.120
         27.391; -0.100
         27.398; -0.120
         27.406; -0.050
         27.414;  0.330
         27.422;  0.530
         27.430; -0.450
         27.438; -2.000
         27.445; -2.010
         27.453; -1.270
         27.461; -0.660
         27.469; -0.260
         27.477; -0.040
         27.484; -0.030
         27.492; -0.010
         27.500;  0.010
         27.508;  0.040
         27.516;  0.050
         27.523;  0.040
         27.531;  0.070
         27.539;  0.070
         27.547;  0.080
         27.555;  0.080
         27.562;  0.110
         27.570;  0.120
         27.578;  0.140
         27.586;  0.150
         27.594;  0.170
         27.602;  0.190
         27.609;  0.190
         27.617;  0.230
         27.625;  0.240
         27.633;  0.250
         27.641;  0.250
         27.648;  0.250
         27.656;  0.220
         27.664;  0.200
         27.672;  0.180
         27.680;  0.140
         27.688;  0.100
         27.695;  0.060
         27.703;  0.030
         27.711;  0.000
         27.719; -0.010
         27.727; -0.010
         27.734;  0.000
         27.742;  0.010
         27.750;  0.030
         27.758;  0.030
         27.766;  0.020
         27.773;  0.020
         27.781;  0.020
         27.789;  0.020
         27.797;  0.030
         27.805;  0.010
         27.812;  0.030
         27.820;  0.030
         27.828;  0.030
         27.836;  0.040
         27.844;  0.030
         27.852;  0.040
         27.859;  0.040
         27.867;  0.040
         27.875;  0.040
         27.883;  0.040
         27.891;  0.040
         27.898;  0.050
         27.906;  0.030
         27.914;  0.030
         27.922;  0.030
         27.930;  0.010
         27.938;  0.010
         27.945; -0.010
         27.953;  0.000
         27.961; -0.030
         27.969; -0.030
         27.977; -0.030
         27.984; -0.030
         27.992; -0.040
         28.000; -0.030
         28.008; -0.040
         28.016; -0.040
         28.023; -0.050
         28.031; -0.010
         28.039;  0.030
         28.047;  0.010
         28.055;  0.070
         28.062;  0.070
         28.070;  0.150
         28.078;  0.070
         28.086;  0.020
         28.094; -0.030
         28.102; -0.130
         28.109; -0.140
         28.117; -0.120
         28.125; -0.100
         28.133; -0.100
         28.141; -0.120
         28.148; -0.100
         28.156; -0.120
         28.164; -0.110
         28.172;  0.150
         28.180;  0.410
         28.188;  0.710
         28.195; -1.660
         28.203; -1.990
         28.211; -1.370
         28.219; -1.160
         28.227; -0.450
         28.234; -0.080
         28.242; -0.070
         28.250; -0.050
         28.258; -0.030
         28.266;  0.010
         28.273;  0.010
         28.281;  0.040
         28.289;  0.040
         28.297;  0.040
         28.305;  0.070
         28.312;  0.080
         28.320;  0.080
         28.328;  0.090
         28.336;  0.110
         28.344;  0.120
         28.352;  0.140
         28.359;  0.140
         28.367;  0.160
         28.375;  0.170
         28.383;  0.190
         28.391;  0.200
         28.398;  0.200
         28.406;  0.180
         28.414;  0.160
         28.422;  0.150
         28.430;  0.120
         28.438;  0.080
         28.445;  0.040
         28.453;  0.010
         28.461; -0.010
         28.469; -0.030
         28.477; -0.040
         28.484; -0.040
         28.492; -0.050
         28.500; -0.030
         28.508; -0.020
         28.516; -0.010
         28.523; -0.040
         28.531; -0.020
         28.539; -0.030
         28.547; -0.040
         28.555; -0.040
         28.562; -0.020
         28.570; -0.020
         28.578; -0.030
         28.586; -0.030
         28.594; -0.020
         28.602; -0.010
         28.609; -0.010
         28.617;  0.010
         28.625;  0.000
         28.633; -0.010
         28.641;  0.000
         28.648; -0.010
         28.656; -0.020
         28.664; -0.010
         28.672; -0.020
         28.680; -0.030
         28.688; -0.030
         28.695; -0.040
         28.703; -0.040
         28.711; -0.040
         28.719; -0.040
         28.727; -0.040
         28.734; -0.040
         28.742; -0.070
         28.750; -0.060
         28.758; -0.060
         28.766; -0.050
         28.773; -0.040
         28.781; -0.050
         28.789; -0.060
         28.797; -0.050
         28.805;  0.020
         28.812; -0.010
         28.820;  0.040
         28.828;  0.050
         28.836;  0.120
         28.844;  0.100
         28.852;  0.010
         28.859; -0.020
         28.867; -0.110
         28.875; -0.140
         28.883; -0.150
         28.891; -0.140
         28.898; -0.130
         28.906; -0.140
         28.914; -0.170
         28.922; -0.120
         28.930; -0.130
         28.938; -0.040
         28.945;  0.300
         28.953;  0.580
         28.961; -0.580
         28.969; -1.710
         28.977; -1.510
         28.984; -1.220
         28.992; -0.660
         29.000; -0.290
         29.008; -0.090
         29.016; -0.090
         29.023; -0.070
         29.031; -0.050
         29.039; -0.020
         29.047; -0.030
         29.055; -0.010
         29.062;  0.030
         29.070;  0.030
         29.078;  0.040
         29.086;  0.050
         29.094;  0.050
         29.102;  0.060
         29.109;  0.070
         29.117;  0.090
         29.125;  0.100
         29.133;  0.110
         29.141;  0.110
         29.148;  0.120
         29.156;  0.130
         29.164;  0.130
         29.172;  0.160
         29.180;  0.120
         29.188;  0.130
         29.195;  0.100
         29.203;  0.110
         29.211;  0.080
         29.219;  0.060
         29.227;  0.050
         29.234;  0.010
         29.242;  0.000
         29.250;  0.010
         29.258;  0.000
         29.266; -0.030
         29.273; -0.010
         29.281; -0.010
         29.289;  0.010
         29.297;  0.020
         29.305;  0.020
         29.312;  0.030
         29.320;  0.040
         29.328;  0.000
         29.336;  0.110
         29.344;  0.170
         29.352;  0.400
         29.359;  0.670
         29.367;  0.560
         29.375; -0.400
         29.383; -1.100
         29.391; -1.070
         29.398; -0.870
         29.406; -0.150
         29.414;  1.070
         29.422;  2.590
         29.430;  2.560
         29.438;  1.540
         29.445;  0.720
         29.453; -0.200
         29.461;  0.020
         29.469; -0.260
         29.477; -0.100
         29.484; -0.080
         29.492; -0.090
         29.500; -0.120
         29.508; -0.130
         29.516; -0.140
         29.523; -0.140
         29.531; -0.160
         29.539; -0.190
         29.547; -0.180
         29.555; -0.170
         29.562; -0.170
         29.570; -0.230
         29.578; -0.180
         29.586; -0.220
         29.594; -0.170
         29.602; -0.270
         29.609; -0.300
         29.617; -0.330
         29.625; -0.340
         29.633; -0.350
         29.641; -0.240
         29.648; -0.180
         29.656; -0.070
         29.664; -0.040
         29.672;  0.040
         29.680;  0.080
         29.688;  0.110
         29.695;  0.090
         29.703;  0.080
         29.711;  0.050
         29.719;  0.020
         29.727;  0.000
         29.734; -0.010
         29.742; -0.010
         29.750; -0.020
         29.758; -0.010
         29.766; -0.010
         29.773; -0.020
         29.781; -0.020
         29.789; -0.010
         29.797;  0.000
         29.805; -0.020
         29.812; -0.010
         29.820;  0.090
         29.828;  0.410
         29.836;  0.690
         29.844; -0.450
         29.852; -1.900
         29.859; -1.470
         29.867; -1.120
         29.875; -0.390
         29.883; -0.050
         29.891;  0.030
         29.898;  0.030
         29.906;  0.040
         29.914;  0.040
         29.922;  0.040
         29.930;  0.050
         29.938;  0.070
         29.945;  0.050
         29.953;  0.080
         29.961;  0.080
         29.969;  0.080
         29.977;  0.090
         29.984;  0.110
         29.992;  0.120
         30.000;  0.130
         30.008;  0.140
         30.016;  0.160
         30.023;  0.160
         30.031;  0.180
         30.039;  0.170
         30.047;  0.170
         30.055;  0.150
         30.062;  0.150
         30.070;  0.130
         30.078;  0.120
         30.086;  0.080
         30.094;  0.080
         30.102;  0.060
         30.109;  0.030
         30.117;  0.040
         30.125;  0.030
         30.133;  0.030
         30.141;  0.030
         30.148;  0.040
         30.156;  0.050
         30.164;  0.050
         30.172;  0.060
         30.180;  0.050
         30.188;  0.060
         30.195;  0.060
         30.203;  0.070
         30.211;  0.080
         30.219;  0.080
         30.227;  0.060
         30.234;  0.070
         30.242;  0.060
         30.250;  0.050
         30.258;  0.050
         30.266;  0.050
         30.273;  0.020
         30.281;  0.030
         30.289;  0.030
         30.297;  0.060
         30.305;  0.070
         30.312;  0.050
         30.320;  0.130
         30.328;  0.130
         30.336;  0.210
         30.344;  0.100
         30.352;  0.060
         30.359;  0.010
         30.367; -0.090
         30.375; -0.110
         30.383; -0.090
         30.391; -0.090
         30.398; -0.070
         30.406; -0.100
         30.414; -0.090
         30.422; -0.080
         30.430; -0.080
         30.438;  0.190
         30.445;  0.470
         30.453;  0.770
         30.461; -1.540
         30.469; -1.910
         30.477; -1.320
         30.484; -1.050
         30.492; -0.440
         30.500; -0.030
         30.508; -0.020
         30.516;  0.020
         30.523;  0.030
         30.531;  0.050
         30.539;  0.070
         30.547;  0.080
         30.555;  0.100
         30.562;  0.110
         30.570;  0.110
         30.578;  0.120
         30.586;  0.150
         30.594;  0.160
         30.602;  0.160
         30.609;  0.180
         30.617;  0.210
         30.625;  0.220
         30.633;  0.220
         30.641;  0.240
         30.648;  0.250
         30.656;  0.260
         30.664;  0.250
         30.672;  0.280
         30.680;  0.250
         30.688;  0.240
         30.695;  0.230
         30.703;  0.200
         30.711;  0.140
         30.719;  0.090
         30.727;  0.080
         30.734;  0.040
         30.742;  0.030
         30.750;  0.020
         30.758;  0.010
         30.766;  0.020
         30.773;  0.020
         30.781;  0.040
         30.789;  0.020
         30.797;  0.010
         30.805;  0.040
         30.812;  0.030
         30.820;  0.030
         30.828;  0.040
         30.836;  0.060
         30.844;  0.060
         30.852;  0.070
         30.859;  0.070
         30.867;  0.080
         30.875;  0.070
         30.883;  0.030
         30.891; -0.100
         30.898;  0.070
         30.906;  0.140
         30.914;  0.120
         30.922; -0.020
         30.930; -0.120
         30.938;  0.790
         30.945;  2.390
         30.953;  2.540
         30.961;  2.370
         30.969;  2.890
         30.977;  2.740
         30.984;  3.420
         30.992;  2.900
         31.000;  2.070
         31.008;  0.620
         31.016;  0.270
         31.023;  0.100
         31.031; -0.120
         31.039; -0.140
         31.047; -0.160
         31.055; -0.240
         31.062; -0.230
         31.070; -0.280
         31.078; -0.210
         31.086; -0.320
         31.094; -0.390
         31.102; -0.500
         31.109; -0.610
         31.117; -0.700
         31.125; -0.770
         31.133; -0.810
         31.141; -0.880
         31.148; -0.950
         31.156; -1.040
         31.164; -1.100
         31.172; -1.140
         31.180; -1.130
         31.188; -1.100
         31.195; -1.000
         31.203; -0.890
         31.211; -0.730
         31.219; -0.570
         31.227; -0.410
         31.234; -0.250
         31.242; -0.150
         31.250; -0.070
         31.258; -0.040
         31.266;  0.000
         31.273;  0.000
         31.281;  0.020
         31.289;  0.000
         31.297; -0.010
         31.305;  0.010
         31.312;  0.010
         31.320;  0.020
         31.328;  0.010
         31.336;  0.020
         31.344;  0.010
         31.352;  0.020
         31.359;  0.010
         31.367;  0.030
         31.375;  0.010
         31.383;  0.010
         31.391;  0.000
         31.398;  0.000
         31.406;  0.000
         31.414; -0.010
         31.422; -0.020
         31.430; -0.020
         31.438; -0.020
         31.445; -0.020
         31.453; -0.020
         31.461; -0.030
         31.469; -0.020
         31.477; -0.030
         31.484; -0.030
         31.492; -0.030
         31.500; -0.030
         31.508; -0.020
         31.516; -0.030
         31.523; -0.040
         31.531; -0.030
         31.539; -0.030
         31.547; -0.030
         31.555; -0.030
         31.562; -0.030
         31.570; -0.030
         31.578; -0.030
         31.586; -0.030
         31.594; -0.040
         31.602; -0.030
         31.609; -0.040
         31.617; -0.040
         31.625; -0.040
         31.633; -0.060
         31.641; -0.060
         31.648; -0.050
         31.656; -0.060
         31.664; -0.060
         31.672; -0.040
         31.680; -0.060
         31.688; -0.060
         31.695; -0.070
         31.703; -0.050
         31.711; -0.050
         31.719; -0.060
         31.727; -0.050
         31.734; -0.060
         31.742; -0.060
         31.750; -0.070
         31.758; -0.060
         31.766; -0.060
         31.773; -0.070
         31.781; -0.070
         31.789; -0.060
         31.797; -0.060
         31.805; -0.060
         31.812; -0.050
         31.820; -0.030
         31.828;  0.010
         31.836; -0.010
         31.844;  0.050
         31.852;  0.120
         31.859;  0.110
         31.867;  0.100
         31.875;  0.030
         31.883; -0.050
         31.891; -0.080
         31.898; -0.110
         31.906; -0.080
         31.914; -0.090
         31.922; -0.090
         31.930; -0.100
         31.938; -0.090
         31.945; -0.090
         31.953;  0.010
         31.961;  0.350
         31.969;  0.760
         31.977; -1.010
         31.984; -1.720
         31.992; -1.410
         32.000; -1.140
         32.008; -0.500
         32.016; -0.150
         32.023; -0.080
         32.031; -0.040
         32.039; -0.030
         32.047;  0.000
         32.055;  0.030
         32.062;  0.050
         32.070;  0.070
         32.078;  0.070
         32.086;  0.060
         32.094;  0.090
         32.102;  0.110
         32.109;  0.110
         32.117;  0.130
         32.125;  0.150
         32.133;  0.140
         32.141;  0.150
         32.148;  0.170
         32.156;  0.170
         32.164;  0.190
         32.172;  0.210
         32.180;  0.240
         32.188;  0.260
         32.195;  0.280
         32.203;  0.300
         32.211;  0.320
         32.219;  0.340
         32.227;  0.350
         32.234;  0.330
         32.242;  0.270
         32.250;  0.170
         32.258;  0.130
         32.266;  0.050
         32.273;  0.030
         32.281;  0.010
         32.289;  0.000
         32.297; -0.010
         32.305;  0.010
         32.312;  0.030
         32.320;  0.030
         32.328;  0.020
         32.336;  0.030
         32.344;  0.020
         32.352;  0.020
         32.359;  0.030
         32.367;  0.040
         32.375;  0.060
         32.383;  0.050
         32.391;  0.060
         32.398;  0.080
         32.406; -0.040
         32.414;  0.050
         32.422;  0.080
         32.430;  0.080
         32.438; -0.020
         32.445; -0.200
         32.453; -0.100
         32.461;  1.170
         32.469;  1.940
         32.477;  2.380
         32.484;  2.220
         32.492;  2.460
         32.500;  2.580
         32.508;  3.310
         32.516;  2.530
         32.523;  1.400
         32.531;  0.300
         32.539;  0.210
         32.547; -0.110
         32.555; -0.170
         32.562; -0.150
         32.570; -0.200
         32.578; -0.200
         32.586; -0.290
         32.594; -0.340
         32.602; -0.420
         32.609; -0.540
         32.617; -0.630
         32.625; -0.660
         32.633; -0.710
         32.641; -0.780
         32.648; -0.870
         32.656; -0.940
         32.664; -1.050
         32.672; -1.110
         32.680; -1.180
         32.688; -1.280
         32.695; -1.310
         32.703; -1.330
         32.711; -1.250
         32.719; -1.170
         32.727; -1.030
         32.734; -0.880
         32.742; -0.690
         32.750; -0.510
         32.758; -0.380
         32.766; -0.230
         32.773; -0.170
         32.781; -0.100
         32.789; -0.080
         32.797; -0.090
         32.805; -0.070
         32.812; -0.070
         32.820; -0.070
         32.828; -0.070
         32.836; -0.070
         32.844; -0.060
         32.852; -0.080
         32.859; -0.070
         32.867; -0.080
         32.875; -0.070
         32.883; -0.070
         32.891; -0.060
         32.898; -0.060
         32.906; -0.060
         32.914; -0.070
         32.922; -0.050
         32.930; -0.070
         32.938; -0.070
         32.945; -0.060
         32.953; -0.070
         32.961; -0.070
         32.969; -0.070
         32.977; -0.060
         32.984; -0.070
         32.992; -0.070
         33.000; -0.060
         33.008; -0.070
         33.016; -0.070
         33.023; -0.070
         33.031; -0.060
         33.039; -0.070
         33.047; -0.070
         33.055; -0.070
         33.062; -0.050
         33.070; -0.070
         33.078; -0.060
         33.086; -0.070
         33.094; -0.060
         33.102; -0.060
         33.109; -0.060
         33.117; -0.050
         33.125; -0.070
         33.133; -0.080
         33.141; -0.060
         33.148; -0.060
         33.156; -0.060
         33.164; -0.060
         33.172; -0.050
         33.180; -0.060
         33.188; -0.050
         33.195; -0.030
         33.203; -0.050
         33.211; -0.060
         33.219; -0.060
         33.227; -0.070
         33.234; -0.060
         33.242; -0.070
         33.250; -0.060
         33.258; -0.060
         33.266; -0.060
         33.273; -0.070
         33.281; -0.040
         33.289; -0.010
         33.297;  0.020
         33.305;  0.030
         33.312;  0.060
         33.320;  0.160
         33.328;  0.110
         33.336;  0.090
         33.344;  0.040
         33.352; -0.060
         33.359; -0.070
         33.367; -0.090
         33.375; -0.070
         33.383; -0.070
         33.391; -0.070
         33.398; -0.080
         33.406; -0.100
         33.414; -0.080
         33.422;  0.210
         33.430;  0.460
         33.438;  0.520
         33.445; -1.670
         33.453; -1.830
         33.461; -1.180
         33.469; -0.840
         33.477; -0.380
         33.484; -0.020
         33.492; -0.050
         33.500;  0.000
         33.508;  0.030
         33.516;  0.040
         33.523;  0.050
         33.531;  0.070
         33.539;  0.080
         33.547;  0.080
         33.555;  0.110
         33.562;  0.120
         33.570;  0.130
         33.578;  0.150
         33.586;  0.170
         33.594;  0.190
         33.602;  0.200
         33.609;  0.250
         33.617;  0.260
         33.625;  0.280
         33.633;  0.320
         33.641;  0.350
         33.648;  0.390
         33.656;  0.410
         33.664;  0.430
         33.672;  0.440
         33.680;  0.450
         33.688;  0.440
         33.695;  0.410
         33.703;  0.350
         33.711;  0.250
         33.719;  0.160
         33.727;  0.120
         33.734;  0.060
         33.742;  0.040
         33.750;  0.020
         33.758;  0.030
         33.766;  0.030
         33.773;  0.040
         33.781;  0.040
         33.789;  0.030
         33.797;  0.050
         33.805;  0.040
         33.812;  0.050
         33.820;  0.040
         33.828;  0.040
         33.836;  0.050
         33.844;  0.050
         33.852;  0.040
         33.859;  0.060
         33.867;  0.060
         33.875;  0.050
         33.883;  0.050
         33.891;  0.040
         33.898;  0.050
         33.906;  0.040
         33.914;  0.040
         33.922;  0.030
         33.930;  0.020
         33.938;  0.010
         33.945;  0.010
         33.953;  0.000
         33.961;  0.000
         33.969;  0.000
         33.977; -0.010
         33.984; -0.010
         33.992; -0.030
         34.000; -0.010
         34.008;  0.040
         34.016;  0.000
         34.023;  0.060
         34.031;  0.080
         34.039;  0.160
         34.047;  0.110
         34.055;  0.060
         34.062;  0.010
         34.070; -0.090
         34.078; -0.090
         34.086; -0.090
         34.094; -0.090
         34.102; -0.080
         34.109; -0.090
         34.117; -0.090
         34.125; -0.100
         34.133; -0.090
         34.141;  0.190
         34.148;  0.500
         34.156;  0.780
         34.164; -1.560
         34.172; -1.890
         34.180; -1.270
         34.188; -1.070
         34.195; -0.440
         34.203; -0.060
         34.211; -0.050
         34.219; -0.030
         34.227;  0.000
         34.234;  0.020
         34.242;  0.000
         34.250;  0.040
         34.258;  0.030
         34.266;  0.050
         34.273;  0.060
         34.281;  0.080
         34.289;  0.080
         34.297;  0.090
         34.305;  0.120
         34.312;  0.130
         34.320;  0.140
         34.328;  0.160
         34.336;  0.180
         34.344;  0.180
         34.352;  0.200
         34.359;  0.200
         34.367;  0.210
         34.375;  0.210
         34.383;  0.200
         34.391;  0.200
         34.398;  0.180
         34.406;  0.160
         34.414;  0.120
         34.422;  0.090
         34.430;  0.070
         34.438;  0.040
         34.445;  0.020
         34.453;  0.030
         34.461;  0.010
         34.469;  0.030
         34.477;  0.020
         34.484;  0.050
         34.492;  0.020
         34.500;  0.040
         34.508;  0.040
         34.516;  0.030
         34.523;  0.030
         34.531;  0.040
         34.539;  0.040
         34.547;  0.040
         34.555;  0.040
         34.562;  0.040
         34.570;  0.060
         34.578;  0.050
         34.586;  0.050
         34.594;  0.050
         34.602;  0.040
         34.609;  0.040
         34.617;  0.050
         34.625;  0.030
         34.633;  0.030
         34.641;  0.030
         34.648;  0.030
         34.656;  0.000
         34.664;  0.010
         34.672;  0.000
         34.680;  0.000
         34.688; -0.010
         34.695; -0.010
         34.703; -0.010
         34.711; -0.010
         34.719; -0.020
         34.727; -0.030
         34.734; -0.020
         34.742; -0.010
         34.750;  0.040
         34.758;  0.030
         34.766;  0.050
         34.773;  0.070
         34.781;  0.180
         34.789;  0.130
         34.797;  0.060
         34.805;  0.030
         34.812; -0.080
         34.820; -0.100
         34.828; -0.110
         34.836; -0.070
         34.844; -0.070
         34.852; -0.090
         34.859; -0.100
         34.867; -0.080
         34.875; -0.070
         34.883;  0.090
         34.891;  0.430
         34.898;  0.760
         34.906; -1.130
         34.914; -1.900
         34.922; -1.530
         34.930; -1.220
         34.938; -0.470
         34.945; -0.110
         34.953; -0.030
         34.961; -0.040
         34.969;  0.000
         34.977;  0.020
         34.984;  0.050
         34.992;  0.030
         35.000;  0.050
         35.008;  0.060
         35.016;  0.070
         35.023;  0.070
         35.031;  0.080
         35.039;  0.070
         35.047;  0.090
         35.055;  0.110
         35.062;  0.120
         35.070;  0.140
         35.078;  0.140
         35.086;  0.150
         35.094;  0.160
         35.102;  0.170
         35.109;  0.170
         35.117;  0.170
         35.125;  0.150
         35.133;  0.140
         35.141;  0.140
         35.148;  0.120
         35.156;  0.080
         35.164;  0.050
         35.172;  0.040
         35.180;  0.010
         35.188;  0.010
         35.195; -0.010
         35.203;  0.000
         35.211; -0.010
         35.219;  0.000
         35.227;  0.020
         35.234;  0.020
         35.242;  0.010
         35.250;  0.010
         35.258;  0.010
         35.266;  0.000
         35.273;  0.010
         35.281;  0.020
         35.289;  0.020
         35.297;  0.030
         35.305;  0.030
         35.312;  0.020
         35.320;  0.020
         35.328;  0.040
         35.336;  0.030
         35.344;  0.040
         35.352;  0.030
         35.359;  0.040
         35.367;  0.040
         35.375;  0.010
         35.383;  0.000
         35.391; -0.020
         35.398; -0.020
         35.406; -0.020
         35.414; -0.040
         35.422; -0.040
         35.430; -0.050
         35.438; -0.060
         35.445; -0.060
         35.453; -0.050
         35.461; -0.070
         35.469; -0.060
         35.477;  0.010
         35.484;  0.000
         35.492;  0.020
         35.500;  0.060
         35.508;  0.170
         35.516;  0.110
         35.523;  0.060
         35.531;  0.030
         35.539; -0.070
         35.547; -0.110
         35.555; -0.120
         35.562; -0.100
         35.570; -0.090
         35.578; -0.110
         35.586; -0.110
         35.594; -0.110
         35.602; -0.110
         35.609;  0.050
         35.617;  0.320
         35.625;  0.670
         35.633; -0.670
         35.641; -1.710
         35.648; -1.370
         35.656; -1.160
         35.664; -0.620
         35.672; -0.210
         35.680; -0.090
         35.688; -0.060
         35.695; -0.030
         35.703; -0.010
         35.711; -0.030
         35.719;  0.010
         35.727;  0.020
         35.734; -0.010
         35.742;  0.020
         35.750;  0.040
         35.758;  0.040
         35.766;  0.040
         35.773;  0.090
         35.781;  0.090
         35.789;  0.090
         35.797;  0.110
         35.805;  0.120
         35.812;  0.130
         35.820;  0.130
         35.828;  0.130
         35.836;  0.150
         35.844;  0.160
         35.852;  0.160
         35.859;  0.150
         35.867;  0.150
         35.875;  0.130
         35.883;  0.120
         35.891;  0.100
         35.898;  0.060
         35.906;  0.050
         35.914;  0.050
         35.922;  0.030
         35.930;  0.030
         35.938;  0.030
         35.945;  0.020
         35.953;  0.030
         35.961;  0.020
         35.969;  0.040
         35.977;  0.020
         35.984;  0.050
         35.992;  0.040
         36.000;  0.050
         36.008;  0.050
         36.016;  0.040
         36.023;  0.050
         36.031;  0.050
         36.039;  0.040
         36.047;  0.040
         36.055;  0.040
         36.062;  0.030
         36.070;  0.020
         36.078;  0.010
         36.086;  0.010
         36.094; -0.010
         36.102;  0.000
         36.109;  0.000
         36.117; -0.010
         36.125; -0.020
         36.133; -0.020
         36.141; -0.020
         36.148; -0.020
         36.156; -0.030
         36.164; -0.030
         36.172; -0.010
         36.180; -0.030
         36.188; -0.030
         36.195; -0.030
         36.203; -0.030
         36.211; -0.030
         36.219;  0.030
         36.227;  0.030
         36.234;  0.020
         36.242;  0.070
         36.250;  0.120
         36.258;  0.110
         36.266;  0.040
         36.273;  0.010
         36.281; -0.070
         36.289; -0.140
         36.297; -0.120
         36.305; -0.110
         36.312; -0.110
         36.320; -0.110
         36.328; -0.120
         36.336; -0.120
         36.344; -0.110
         36.352; -0.050
         36.359;  0.310
         36.367;  0.630
         36.375; -0.400
         36.383; -1.870
         36.391; -1.790
         36.398; -1.290
         36.406; -0.630
         36.414; -0.270
         36.422; -0.020
         36.430; -0.030
         36.438;  0.000
         36.445;  0.020
         36.453;  0.040
         36.461;  0.050
         36.469;  0.080
         36.477;  0.080
         36.484;  0.080
         36.492;  0.100
         36.500;  0.120
         36.508;  0.130
         36.516;  0.160
         36.523;  0.170
         36.531;  0.190
         36.539;  0.200
         36.547;  0.230
         36.555;  0.250
         36.562;  0.270
         36.570;  0.290
         36.578;  0.310
         36.586;  0.310
         36.594;  0.300
         36.602;  0.290
         36.609;  0.280
         36.617;  0.240
         36.625;  0.200
         36.633;  0.160
         36.641;  0.120
         36.648;  0.080
         36.656;  0.060
         36.664;  0.050
         36.672;  0.060
         36.680;  0.050
         36.688;  0.060
         36.695;  0.050
         36.703;  0.050
         36.711;  0.050
         36.719;  0.050
         36.727;  0.050
         36.734;  0.050
         36.742;  0.060
         36.750;  0.060
         36.758;  0.060
         36.766;  0.060
         36.773;  0.070
         36.781;  0.090
         36.789;  0.090
         36.797;  0.100
         36.805;  0.100
         36.812;  0.090
         36.820;  0.090
         36.828;  0.100
         36.836;  0.080
         36.844;  0.080
         36.852;  0.080
         36.859;  0.070
         36.867;  0.050
         36.875;  0.060
         36.883;  0.060
         36.891;  0.060
         36.898;  0.040
         36.906;  0.040
         36.914;  0.030
         36.922;  0.030
         36.930;  0.020
         36.938;  0.030
         36.945;  0.020
         36.953;  0.020
         36.961;  0.010
         36.969;  0.020
         36.977;  0.030
         36.984;  0.060
         36.992;  0.080
         37.000;  0.110
         37.008;  0.120
         37.016;  0.180
         37.023;  0.160
         37.031;  0.080
         37.039;  0.040
         37.047; -0.070
         37.055; -0.100
         37.062; -0.080
         37.070; -0.070
         37.078; -0.070
         37.086; -0.060
         37.094; -0.080
         37.102; -0.060
         37.109; -0.060
         37.117;  0.060
         37.125;  0.450
         37.133;  0.760
         37.141; -0.960
         37.148; -1.930
         37.156; -1.700
         37.164; -1.250
         37.172; -0.470
         37.180; -0.130
         37.188;  0.010
         37.195;  0.010
         37.203;  0.050
         37.211;  0.070
         37.219;  0.080
         37.227;  0.090
         37.234;  0.100
         37.242;  0.110
         37.250;  0.120
         37.258;  0.130
         37.266;  0.130
         37.273;  0.140
         37.281;  0.150
         37.289;  0.160
         37.297;  0.180
         37.305;  0.200
         37.312;  0.190
         37.320;  0.200
         37.328;  0.240
         37.336;  0.230
         37.344;  0.250
         37.352;  0.240
         37.359;  0.230
         37.367;  0.200
         37.375;  0.200
         37.383;  0.160
         37.391;  0.140
         37.398;  0.100
         37.406;  0.070
         37.414;  0.060
         37.422;  0.050
         37.430;  0.030
         37.438;  0.050
         37.445;  0.060
         37.453;  0.060
         37.461;  0.060
         37.469;  0.070
         37.477;  0.060
         37.484;  0.040
         37.492;  0.060
         37.500;  0.060
         37.508;  0.060
         37.516;  0.050
         37.523;  0.080
         37.531;  0.050
         37.539;  0.060
         37.547;  0.070
         37.555;  0.080
         37.562;  0.080
         37.570;  0.070
         37.578;  0.080
         37.586;  0.080
         37.594;  0.070
         37.602;  0.080
         37.609;  0.080
         37.617;  0.060
         37.625;  0.040
         37.633;  0.040
         37.641;  0.040
         37.648;  0.030
         37.656;  0.040
         37.664;  0.020
         37.672;  0.020
         37.680;  0.010
         37.688;  0.020
         37.695;  0.010
         37.703;  0.020
         37.711;  0.010
         37.719;  0.010
         37.727;  0.010
         37.734;  0.000
         37.742;  0.020
         37.750;  0.000
         37.758;  0.000
         37.766;  0.000
         37.773;  0.010
         37.781;  0.010
         37.789;  0.060
         37.797;  0.020
         37.805;  0.100
         37.812;  0.090
         37.820;  0.180
         37.828;  0.100
         37.836;  0.040
         37.844; -0.010
         37.852; -0.120
         37.859; -0.100
         37.867; -0.110
         37.875; -0.080
         37.883; -0.080
         37.891; -0.090
         37.898; -0.100
         37.906; -0.080
         37.914; -0.060
         37.922;  0.230
         37.930;  0.470
         37.938;  0.720
         37.945; -1.620
         37.953; -1.940
         37.961; -1.260
         37.969; -1.080
         37.977; -0.390
         37.984; -0.030
         37.992; -0.020
         38.000;  0.000
         38.008;  0.020
         38.016;  0.050
         38.023;  0.060
         38.031;  0.060
         38.039;  0.080
         38.047;  0.090
         38.055;  0.100
         38.062;  0.110
         38.070;  0.130
         38.078;  0.140
         38.086;  0.140
         38.094;  0.160
         38.102;  0.170
         38.109;  0.180
         38.117;  0.190
         38.125;  0.210
         38.133;  0.210
         38.141;  0.220
         38.148;  0.210
         38.156;  0.210
         38.164;  0.200
         38.172;  0.170
         38.180;  0.130
         38.188;  0.130
         38.195;  0.090
         38.203;  0.040
         38.211;  0.040
         38.219;  0.010
         38.227; -0.010
         38.234; -0.010
         38.242;  0.000
         38.250;  0.000
         38.258;  0.010
         38.266;  0.020
         38.273;  0.020
         38.281;  0.020
         38.289;  0.010
         38.297;  0.010
         38.305;  0.010
         38.312;  0.010
         38.320;  0.010
         38.328;  0.030
         38.336;  0.030
         38.344;  0.030
         38.352;  0.030
         38.359;  0.040
         38.367;  0.030
         38.375;  0.050
         38.383;  0.040
         38.391;  0.050
         38.398;  0.030
         38.406;  0.040
         38.414;  0.010
         38.422;  0.010
         38.430;  0.020
         38.438;  0.010
         38.445;  0.000
         38.453; -0.020
         38.461;  0.000
         38.469; -0.010
         38.477; -0.020
         38.484; -0.030
         38.492; -0.030
         38.500; -0.030
         38.508; -0.030
         38.516; -0.030
         38.523; -0.040
         38.531; -0.040
         38.539; -0.050
         38.547; -0.050
         38.555; -0.050
         38.562; -0.060
         38.570; -0.060
         38.578; -0.050
         38.586; -0.060
         38.594; -0.070
         38.602; -0.060
         38.609; -0.030
         38.617;  0.010
         38.625; -0.020
         38.633;  0.050
         38.641;  0.040
         38.648;  0.120
         38.656;  0.060
         38.664;  0.020
         38.672; -0.040
         38.680; -0.150
         38.688; -0.130
         38.695; -0.130
         38.703; -0.110
         38.711; -0.110
         38.719; -0.120
         38.727; -0.110
         38.734; -0.120
         38.742; -0.100
         38.750;  0.150
         38.758;  0.460
         38.766;  0.780
         38.773; -1.450
         38.781; -1.770
         38.789; -1.280
         38.797; -1.040
         38.805; -0.520
         38.812; -0.100
         38.820; -0.080
         38.828; -0.050
         38.836; -0.030
         38.844; -0.020
         38.852;  0.000
         38.859;  0.020
         38.867;  0.030
         38.875;  0.030
         38.883;  0.050
         38.891;  0.040
         38.898;  0.060
         38.906;  0.070
         38.914;  0.080
         38.922;  0.090
         38.930;  0.090
         38.938;  0.100
         38.945;  0.130
         38.953;  0.110
         38.961;  0.130
         38.969;  0.160
         38.977;  0.140
         38.984;  0.130
         38.992;  0.150
         39.000;  0.150
         39.008;  0.110
         39.016;  0.090
         39.023;  0.070
         39.031;  0.040
         39.039;  0.020
         39.047;  0.020
         39.055; -0.010
         39.062; -0.010
         39.070; -0.020
         39.078;  0.000
         39.086; -0.010
         39.094; -0.010
         39.102;  0.020
         39.109;  0.010
         39.117;  0.000
         39.125; -0.020
         39.133;  0.010
         39.141;  0.010
         39.148;  0.000
         39.156;  0.020
         39.164;  0.030
         39.172;  0.030
         39.180;  0.030
         39.188;  0.040
         39.195;  0.020
         39.203;  0.020
         39.211;  0.030
         39.219;  0.030
         39.227;  0.010
         39.234; -0.010
         39.242;  0.000
         39.250;  0.000
         39.258; -0.010
         39.266; -0.030
         39.273; -0.010
         39.281; -0.020
         39.289; -0.040
         39.297; -0.030
         39.305; -0.030
         39.312; -0.050
         39.320; -0.050
         39.328; -0.020
         39.336; -0.060
         39.344; -0.050
         39.352; -0.050
         39.359; -0.050
         39.367; -0.070
         39.375; -0.070
         39.383; -0.070
         39.391; -0.060
         39.398; -0.020
         39.406;  0.010
         39.414; -0.020
         39.422;  0.060
         39.430;  0.050
         39.438;  0.130
         39.445;  0.050
         39.453;  0.000
         39.461; -0.040
         39.469; -0.140
         39.477; -0.120
         39.484; -0.130
         39.492; -0.110
         39.500; -0.110
         39.508; -0.130
         39.516; -0.120
         39.523; -0.110
         39.531; -0.120
         39.539;  0.160
         39.547;  0.500
         39.555;  0.650
         39.562; -1.300
         39.570; -1.640
         39.578; -1.240
         39.586; -0.890
         39.594; -0.540
         39.602; -0.090
         39.609; -0.080
         39.617; -0.050
         39.625; -0.040
         39.633; -0.010
         39.641; -0.010
         39.648;  0.000
         39.656;  0.020
         39.664;  0.040
         39.672;  0.040
         39.680;  0.040
         39.688;  0.050
         39.695;  0.070
         39.703;  0.100
         39.711;  0.110
         39.719;  0.130
         39.727;  0.130
         39.734;  0.160
         39.742;  0.170
         39.750;  0.200
         39.758;  0.200
         39.766;  0.220
         39.773;  0.210
         39.781;  0.210
         39.789;  0.190
         39.797;  0.170
         39.805;  0.150
         39.812;  0.100
         39.820;  0.070
         39.828;  0.040
         39.836;  0.020
         39.844;  0.000
         39.852;  0.000
         39.859;  0.000
         39.867;  0.000
         39.875;  0.000
         39.883;  0.020
         39.891;  0.010
         39.898;  0.010
         39.906;  0.010
         39.914;  0.020
         39.922;  0.020
         39.930;  0.030
         39.938;  0.040
         39.945;  0.040
         39.953;  0.040
         39.961;  0.030
         39.969;  0.040
         39.977;  0.050
         39.984;  0.040
         39.992;  0.030
         40.000;  0.030
         40.008;  0.030
         40.016;  0.030
         40.023;  0.030
         40.031;  0.020
         40.039;  0.000
         40.047;  0.000
         40.055;  0.010
         40.062;  0.000
         40.070; -0.010
         40.078; -0.010
         40.086; -0.010
         40.094; -0.030
         40.102; -0.020
         40.109; -0.030
         40.117; -0.030
         40.125; -0.040
         40.133; -0.030
         40.141; -0.040
         40.148; -0.050
         40.156; -0.050
         40.164; -0.050
         40.172; -0.040
         40.180; -0.060
         40.188; -0.050
         40.195; -0.050
         40.203; -0.060
         40.211; -0.020
         40.219;  0.030
         40.227;  0.010
         40.234;  0.070
         40.242;  0.080
         40.250;  0.150
         40.258;  0.030
         40.266; -0.010
         40.273; -0.060
         40.281; -0.140
         40.289; -0.130
         40.297; -0.130
         40.305; -0.110
         40.312; -0.110
         40.320; -0.130
         40.328; -0.110
         40.336; -0.110
         40.344; -0.100
         40.352;  0.290
         40.359;  0.460
         40.367;  0.140
         40.375; -1.910
         40.383; -2.040
         40.391; -1.190
         40.398; -0.790
         40.406; -0.340
         40.414; -0.050
         40.422; -0.040
         40.430; -0.020
         40.438;  0.020
         40.445;  0.020
         40.453;  0.030
         40.461;  0.020
         40.469;  0.050
         40.477;  0.060
         40.484;  0.070
         40.492;  0.090
         40.500;  0.110
         40.508;  0.100
         40.516;  0.120
         40.523;  0.140
         40.531;  0.150
         40.539;  0.180
         40.547;  0.200
         40.555;  0.220
         40.562;  0.220
         40.570;  0.240
         40.578;  0.240
         40.586;  0.260
         40.594;  0.230
         40.602;  0.210
         40.609;  0.190
         40.617;  0.150
         40.625;  0.110
         40.633;  0.050
         40.641;  0.020
         40.648; -0.010
         40.656; -0.020
         40.664; -0.010
         40.672; -0.020
         40.680; -0.010
         40.688;  0.000
         40.695;  0.010
         40.703;  0.000
         40.711;  0.010
         40.719;  0.000
         40.727;  0.010
         40.734; -0.010
         40.742; -0.010
         40.750;  0.000
         40.758;  0.000
         40.766;  0.000
         40.773;  0.020
         40.781;  0.020
         40.789;  0.030
         40.797;  0.020
         40.805;  0.030
         40.812;  0.030
         40.820;  0.030
         40.828;  0.030
         40.836;  0.030
         40.844;  0.020
         40.852;  0.020
         40.859;  0.010
         40.867;  0.020
         40.875;  0.000
         40.883;  0.010
         40.891;  0.010
         40.898;  0.000
         40.906;  0.000
         40.914;  0.000
         40.922; -0.020
         40.930; -0.020
         40.938; -0.020
         40.945; -0.020
         40.953; -0.010
         40.961; -0.010
         40.969; -0.010
         40.977; -0.020
         40.984; -0.020
         40.992; -0.010
         41.000; -0.010
         41.008; -0.020
         41.016; -0.020
         41.023; -0.020
         41.031; -0.030
         41.039; -0.030
         41.047; -0.030
         41.055; -0.030
         41.062; -0.030
         41.070;  0.020
         41.078;  0.010
         41.086;  0.040
         41.094;  0.040
         41.102;  0.130
         41.109;  0.080
         41.117;  0.000
         41.125; -0.040
         41.133; -0.140
         41.141; -0.160
         41.148; -0.160
         41.156; -0.140
         41.164; -0.120
         41.172; -0.140
         41.180; -0.150
         41.188; -0.130
         41.195; -0.130
         41.203;  0.030
         41.211;  0.340
         41.219;  0.730
         41.227; -1.170
         41.234; -1.910
         41.242; -1.640
         41.250; -1.270
         41.258; -0.500
         41.266; -0.170
         41.273; -0.060
         41.281; -0.050
         41.289; -0.020
         41.297;  0.000
         41.305;  0.020
         41.312;  0.050
         41.320;  0.050
         41.328;  0.080
         41.336;  0.090
         41.344;  0.090
         41.352;  0.110
         41.359;  0.140
         41.367;  0.130
         41.375;  0.140
         41.383;  0.160
         41.391;  0.170
         41.398;  0.190
         41.406;  0.210
         41.414;  0.210
         41.422;  0.240
         41.430;  0.230
         41.438;  0.240
         41.445;  0.230
         41.453;  0.200
         41.461;  0.200
         41.469;  0.170
         41.477;  0.130
         41.484;  0.080
         41.492;  0.050
         41.500;  0.020
         41.508; -0.010
         41.516; -0.020
         41.523; -0.010
         41.531; -0.010
         41.539; -0.010
         41.547;  0.000
         41.555;  0.020
         41.562;  0.010
         41.570;  0.000
         41.578;  0.010
         41.586;  0.000
         41.594; -0.010
         41.602; -0.010
         41.609;  0.010
         41.617;  0.010
         41.625;  0.010
         41.633;  0.030
         41.641;  0.020
         41.648;  0.030
         41.656;  0.050
         41.664;  0.060
         41.672;  0.050
         41.680;  0.060
         41.688;  0.050
         41.695;  0.060
         41.703;  0.050
         41.711;  0.050
         41.719;  0.050
         41.727;  0.030
         41.734;  0.030
         41.742;  0.020
         41.750;  0.020
         41.758;  0.010
         41.766;  0.010
         41.773;  0.010
         41.781;  0.000
         41.789;  0.000
         41.797; -0.010
         41.805; -0.010
         41.812;  0.000
         41.820; -0.020
         41.828; -0.020
         41.836; -0.020
         41.844; -0.030
         41.852; -0.040
         41.859; -0.040
         41.867; -0.030
         41.875; -0.040
         41.883; -0.030
         41.891; -0.040
         41.898; -0.020
         41.906;  0.020
         41.914;  0.010
         41.922;  0.060
         41.930;  0.070
         41.938;  0.130
         41.945;  0.100
         41.953;  0.030
         41.961; -0.020
         41.969; -0.110
         41.977; -0.130
         41.984; -0.130
         41.992; -0.120
         42.000; -0.110
         42.008; -0.110
         42.016; -0.120
         42.023; -0.110
         42.031; -0.110
         42.039;  0.010
         42.047;  0.370
         42.055;  0.730
         42.062; -1.030
         42.070; -1.800
         42.078; -1.530
         42.086; -1.220
         42.094; -0.540
         42.102; -0.170
         42.109; -0.050
         42.117; -0.050
         42.125; -0.020
         42.133;  0.020
         42.141;  0.020
         42.148;  0.050
         42.156;  0.040
         42.164;  0.060
         42.172;  0.070
         42.180;  0.070
         42.188;  0.090
         42.195;  0.100
         42.203;  0.110
         42.211;  0.100
         42.219;  0.120
         42.227;  0.140
         42.234;  0.150
         42.242;  0.150
         42.250;  0.160
         42.258;  0.160
         42.266;  0.170
         42.273;  0.150
         42.281;  0.150
         42.289;  0.120
         42.297;  0.110
         42.305;  0.090
         42.312;  0.050
         42.320;  0.010
         42.328; -0.010
         42.336; -0.010
         42.344; -0.030
         42.352; -0.050
         42.359; -0.050
         42.367; -0.030
         42.375; -0.030
         42.383; -0.010
         42.391; -0.010
         42.398;  0.000
         42.406; -0.020
         42.414;  0.000
         42.422;  0.000
         42.430;  0.000
         42.438;  0.000
         42.445;  0.020
         42.453;  0.020
         42.461;  0.010
         42.469;  0.030
         42.477;  0.020
         42.484;  0.020
         42.492;  0.030
         42.500;  0.040
         42.508;  0.020
         42.516;  0.010
         42.523;  0.020
         42.531;  0.010
         42.539;  0.010
         42.547; -0.010
         42.555;  0.010
         42.562; -0.010
         42.570; -0.010
         42.578; -0.020
         42.586; -0.010
         42.594; -0.020
         42.602; -0.030
         42.609; -0.020
         42.617; -0.030
         42.625; -0.030
         42.633; -0.030
         42.641; -0.040
         42.648; -0.040
         42.656; -0.030
         42.664; -0.050
         42.672; -0.040
         42.680; -0.060
         42.688; -0.040
         42.695;  0.020
         42.703;  0.000
         42.711;  0.000
         42.719;  0.070
         42.727;  0.120
         42.734;  0.130
         42.742;  0.050
         42.750;  0.030
         42.758; -0.050
         42.766; -0.130
         42.773; -0.080
         42.781; -0.070
         42.789; -0.090
         42.797; -0.100
         42.805; -0.080
         42.812; -0.080
         42.820; -0.100
         42.828; -0.080
         42.836;  0.250
         42.844;  0.590
         42.852;  0.030
         42.859; -1.540
         42.867; -1.470
         42.875; -1.170
         42.883; -0.650
         42.891; -0.350
         42.898; -0.030
         42.906; -0.050
         42.914; -0.020
         42.922;  0.020
         42.930;  0.020
         42.938;  0.040
         42.945;  0.060
         42.953;  0.080
         42.961;  0.070
         42.969;  0.080
         42.977;  0.090
         42.984;  0.110
         42.992;  0.120
         43.000;  0.140
         43.008;  0.160
         43.016;  0.160
         43.023;  0.180
         43.031;  0.200
         43.039;  0.200
         43.047;  0.210
         43.055;  0.230
         43.062;  0.220
         43.070;  0.220
         43.078;  0.210
         43.086;  0.190
         43.094;  0.170
         43.102;  0.150
         43.109;  0.120
         43.117;  0.080
         43.125;  0.060
         43.133;  0.040
         43.141;  0.040
         43.148;  0.020
         43.156;  0.030
         43.164;  0.040
         43.172;  0.030
         43.180;  0.030
         43.188;  0.040
         43.195;  0.050
         43.203;  0.040
         43.211;  0.050
         43.219;  0.050
         43.227;  0.050
         43.234;  0.060
         43.242;  0.060
         43.250;  0.050
         43.258;  0.060
         43.266;  0.060
         43.273;  0.060
         43.281;  0.060
         43.289;  0.050
         43.297;  0.040
         43.305;  0.050
         43.312;  0.040
         43.320;  0.030
         43.328;  0.050
         43.336;  0.040
         43.344;  0.040
         43.352;  0.030
         43.359;  0.030
         43.367;  0.030
         43.375;  0.030
         43.383;  0.020
         43.391;  0.020
         43.398;  0.010
         43.406;  0.020
         43.414;  0.020
         43.422;  0.020
         43.430;  0.010
         43.438;  0.000
         43.445;  0.010
         43.453;  0.010
         43.461;  0.000
         43.469;  0.000
         43.477;  0.020
         43.484;  0.000
         43.492;  0.020
         43.500;  0.090
         43.508;  0.060
         43.516;  0.120
         43.523;  0.130
         43.531;  0.210
         43.539;  0.170
         43.547;  0.100
         43.555;  0.070
         43.562; -0.030
         43.570; -0.070
         43.578; -0.060
         43.586; -0.050
         43.594; -0.040
         43.602; -0.040
         43.609; -0.050
         43.617; -0.030
         43.625; -0.030
         43.633;  0.120
         43.641;  0.470
         43.648;  0.820
         43.656; -1.160
         43.664; -1.850
         43.672; -1.580
         43.680; -1.230
         43.688; -0.460
         43.695; -0.080
         43.703;  0.010
         43.711;  0.010
         43.719;  0.040
         43.727;  0.060
         43.734;  0.090
         43.742;  0.080
         43.750;  0.110
         43.758;  0.110
         43.766;  0.130
         43.773;  0.130
         43.781;  0.150
         43.789;  0.160
         43.797;  0.180
         43.805;  0.180
         43.812;  0.210
         43.820;  0.210
         43.828;  0.240
         43.836;  0.260
         43.844;  0.280
         43.852;  0.290
         43.859;  0.310
         43.867;  0.300
         43.875;  0.290
         43.883;  0.280
         43.891;  0.260
         43.898;  0.230
         43.906;  0.190
         43.914;  0.150
         43.922;  0.110
         43.930;  0.080
         43.938;  0.040
         43.945;  0.040
         43.953;  0.040
         43.961;  0.050
         43.969;  0.060
         43.977;  0.070
         43.984;  0.080
         43.992;  0.070
         44.000;  0.090
         44.008;  0.060
         44.016;  0.080
         44.023;  0.070
         44.031;  0.080
         44.039;  0.080
         44.047;  0.090
         44.055;  0.090
         44.062;  0.100
         44.070;  0.100
         44.078;  0.100
         44.086;  0.130
         44.094;  0.120
         44.102;  0.110
         44.109;  0.120
         44.117;  0.130
         44.125;  0.120
         44.133;  0.110
         44.141;  0.110
         44.148;  0.110
         44.156;  0.080
         44.164;  0.090
         44.172;  0.070
         44.180;  0.080
         44.188;  0.070
         44.195;  0.070
         44.203;  0.050
         44.211;  0.050
         44.219;  0.060
         44.227;  0.030
         44.234;  0.040
         44.242;  0.030
         44.250;  0.030
         44.258;  0.020
         44.266;  0.020
         44.273;  0.020
         44.281;  0.040
         44.289;  0.020
         44.297;  0.040
         44.305;  0.110
         44.312;  0.070
         44.320;  0.140
         44.328;  0.130
         44.336;  0.220
         44.344;  0.160
         44.352;  0.110
         44.359;  0.060
         44.367; -0.050
         44.375; -0.070
         44.383; -0.070
         44.391; -0.040
         44.398; -0.030
         44.406; -0.050
         44.414; -0.050
         44.422; -0.050
         44.430; -0.030
         44.438;  0.190
         44.445;  0.490
         44.453;  0.870
         44.461; -1.420
         44.469; -1.830
         44.477; -1.380
         44.484; -1.140
         44.492; -0.430
         44.500; -0.050
         44.508; -0.010
         44.516;  0.010
         44.523;  0.030
         44.531;  0.050
         44.539;  0.070
         44.547;  0.080
         44.555;  0.100
         44.562;  0.110
         44.570;  0.120
         44.578;  0.110
         44.586;  0.140
         44.594;  0.150
         44.602;  0.160
         44.609;  0.170
         44.617;  0.190
         44.625;  0.190
         44.633;  0.210
         44.641;  0.240
         44.648;  0.240
         44.656;  0.250
         44.664;  0.250
         44.672;  0.250
         44.680;  0.240
         44.688;  0.220
         44.695;  0.200
         44.703;  0.180
         44.711;  0.140
         44.719;  0.100
         44.727;  0.060
         44.734;  0.040
         44.742;  0.030
         44.750;  0.030
         44.758;  0.030
         44.766;  0.030
         44.773;  0.040
         44.781;  0.060
         44.789;  0.050
         44.797;  0.050
         44.805;  0.050
         44.812;  0.040
         44.820;  0.050
         44.828;  0.040
         44.836;  0.040
         44.844;  0.060
         44.852;  0.050
         44.859;  0.060
         44.867;  0.070
         44.875;  0.080
         44.883;  0.050
         44.891;  0.080
         44.898;  0.070
         44.906;  0.080
         44.914;  0.080
         44.922;  0.080
         44.930;  0.060
         44.938;  0.060
         44.945;  0.050
         44.953;  0.060
         44.961;  0.050
         44.969;  0.030
         44.977;  0.040
         44.984;  0.040
         44.992;  0.010
         45.000;  0.020
         45.008;  0.030
         45.016;  0.000
         45.023;  0.000
         45.031;  0.000
         45.039; -0.010
         45.047; -0.030
         45.055; -0.020
         45.062; -0.020
         45.070; -0.030
         45.078; -0.030
         45.086; -0.020
         45.094; -0.040
         45.102; -0.030
         45.109;  0.000
         45.117;  0.030
         45.125;  0.000
         45.133;  0.050
         45.141;  0.060
         45.148;  0.150
         45.156;  0.090
         45.164;  0.020
         45.172; -0.010
         45.180; -0.130
         45.188; -0.140
         45.195; -0.140
         45.203; -0.120
         45.211; -0.110
         45.219; -0.110
         45.227; -0.120
         45.234; -0.110
         45.242; -0.120
         45.250;  0.120
         45.258;  0.410
         45.266;  0.770
         45.273; -1.510
         45.281; -1.850
         45.289; -1.220
         45.297; -1.040
         45.305; -0.440
         45.312; -0.040
         45.320; -0.040
         45.328; -0.030
         45.336;  0.000
         45.344;  0.030
         45.352;  0.020
         45.359;  0.050
         45.367;  0.060
         45.375;  0.070
         45.383;  0.070
         45.391;  0.090
         45.398;  0.080
         45.406;  0.100
         45.414;  0.120
         45.422;  0.120
         45.430;  0.120
         45.438;  0.140
         45.445;  0.150
         45.453;  0.160
         45.461;  0.170
         45.469;  0.160
         45.477;  0.170
         45.484;  0.170
         45.492;  0.140
         45.500;  0.130
         45.508;  0.120
         45.516;  0.080
         45.523;  0.060
         45.531;  0.030
         45.539;  0.000
         45.547; -0.040
         45.555; -0.030
         45.562; -0.050
         45.570; -0.030
         45.578; -0.030
         45.586; -0.020
         45.594; -0.010
         45.602;  0.000
         45.609; -0.010
         45.617;  0.010
         45.625;  0.010
         45.633;  0.000
         45.641;  0.010
         45.648; -0.010
         45.656;  0.000
         45.664;  0.020
         45.672;  0.030
         45.680;  0.010
         45.688;  0.010
         45.695;  0.020
         45.703;  0.030
         45.711;  0.020
         45.719;  0.010
         45.727;  0.000
         45.734;  0.020
         45.742; -0.010
         45.750;  0.000
         45.758; -0.010
         45.766; -0.010
         45.773; -0.030
         45.781; -0.010
         45.789; -0.020
         45.797; -0.040
         45.805; -0.020
         45.812; -0.030
         45.820; -0.040
         45.828; -0.050
         45.836; -0.040
         45.844; -0.050
         45.852; -0.060
         45.859; -0.060
         45.867; -0.050
         45.875; -0.050
         45.883; -0.060
         45.891; -0.050
         45.898; -0.050
         45.906; -0.060
         45.914; -0.030
         45.922;  0.020
         45.930; -0.030
         45.938;  0.050
         45.945;  0.040
         45.953;  0.140
         45.961;  0.080
         45.969;  0.010
         45.977; -0.020
         45.984; -0.140
         45.992; -0.140
         46.000; -0.150
         46.008; -0.100
         46.016; -0.100
         46.023; -0.140
         46.031; -0.120
         46.039; -0.120
         46.047; -0.150
         46.055;  0.130
         46.062;  0.450
         46.070;  0.740
         46.078; -1.160
         46.086; -1.590
         46.094; -1.200
         46.102; -0.920
         46.109; -0.560
         46.117; -0.140
         46.125; -0.110
         46.133; -0.090
         46.141; -0.060
         46.148; -0.050
         46.156; -0.030
         46.164; -0.040
         46.172;  0.000
         46.180; -0.010
         46.188;  0.010
         46.195;  0.010
         46.203;  0.020
         46.211;  0.030
         46.219;  0.040
         46.227;  0.060
         46.234;  0.050
         46.242;  0.080
         46.250;  0.090
         46.258;  0.090
         46.266;  0.090
         46.273;  0.110
         46.281;  0.110
         46.289;  0.120
         46.297;  0.100
         46.305;  0.090
         46.312;  0.080
         46.320;  0.060
         46.328;  0.050
         46.336;  0.030
         46.344;  0.020
         46.352; -0.020
         46.359; -0.020
         46.367; -0.030
         46.375; -0.030
         46.383; -0.030
         46.391; -0.020
         46.398; -0.010
         46.406;  0.000
         46.414;  0.000
         46.422;  0.010
         46.430;  0.010
         46.438;  0.010
         46.445;  0.010
         46.453;  0.010
         46.461;  0.020
         46.469;  0.000
         46.477;  0.010
         46.484;  0.000
         46.492;  0.020
         46.500;  0.010
         46.508;  0.020
         46.516;  0.010
         46.523; -0.010
         46.531;  0.020
         46.539;  0.000
         46.547;  0.000
         46.555;  0.000
         46.562;  0.010
         46.570;  0.000
         46.578;  0.000
         46.586; -0.010
         46.594; -0.010
         46.602; -0.010
         46.609; -0.010
         46.617;  0.000
         46.625; -0.020
         46.633; -0.030
         46.641; -0.020
         46.648; -0.020
         46.656; -0.020
         46.664; -0.040
         46.672; -0.040
         46.680; -0.010
         46.688;  0.020
         46.695;  0.010
         46.703;  0.070
         46.711;  0.090
         46.719;  0.140
         46.727;  0.100
         46.734;  0.040
         46.742; -0.030
         46.750; -0.100
         46.758; -0.110
         46.766; -0.120
         46.773; -0.110
         46.781; -0.090
         46.789; -0.120
         46.797; -0.120
         46.805; -0.120
         46.812; -0.120
         46.820;  0.240
         46.828;  0.500
         46.836;  0.220
         46.844; -1.770
         46.852; -1.880
         46.859; -1.210
         46.867; -0.810
         46.875; -0.410
         46.883; -0.050
         46.891; -0.040
         46.898; -0.020
         46.906;  0.000
         46.914;  0.020
         46.922;  0.040
         46.930;  0.050
         46.938;  0.040
         46.945;  0.070
         46.953;  0.070
         46.961;  0.100
         46.969;  0.110
         46.977;  0.110
         46.984;  0.140
         46.992;  0.160
         47.000;  0.170
         47.008;  0.190
         47.016;  0.210
         47.023;  0.200
         47.031;  0.240
         47.039;  0.240
         47.047;  0.230
         47.055;  0.230
         47.062;  0.230
         47.070;  0.190
         47.078;  0.180
         47.086;  0.130
         47.094;  0.100
         47.102;  0.050
         47.109;  0.030
         47.117;  0.000
         47.125;  0.000
         47.133;  0.000
         47.141; -0.010
         47.148;  0.000
         47.156;  0.000
         47.164;  0.000
         47.172;  0.010
         47.180;  0.000
         47.188; -0.010
         47.195;  0.010
         47.203;  0.010
         47.211;  0.000
         47.219;  0.010
         47.227;  0.030
         47.234;  0.020
         47.242;  0.020
         47.250;  0.040
         47.258;  0.030
         47.266;  0.040
         47.273;  0.050
         47.281;  0.040
         47.289;  0.040
         47.297;  0.050
         47.305;  0.040
         47.312;  0.040
         47.320;  0.030
         47.328;  0.030
         47.336;  0.030
         47.344;  0.020
         47.352;  0.000
         47.359;  0.020
         47.367;  0.020
         47.375;  0.000
         47.383;  0.000
         47.391;  0.000
         47.398; -0.010
         47.406; -0.010
         47.414; -0.010
         47.422; -0.010
         47.430; -0.010
         47.438; -0.020
         47.445; -0.020
         47.453; -0.020
         47.461; -0.020
         47.469; -0.030
         47.477; -0.010
         47.484;  0.020
         47.492;  0.020
         47.500;  0.040
         47.508;  0.090
         47.516;  0.120
         47.523;  0.150
         47.531;  0.050
         47.539;  0.010
         47.547; -0.060
         47.555; -0.110
         47.562; -0.090
         47.570; -0.090
         47.578; -0.070
         47.586; -0.070
         47.594; -0.070
         47.602; -0.070
         47.609; -0.080
         47.617;  0.000
         47.625;  0.380
         47.633;  0.690
         47.641; -0.800
         47.648; -1.790
         47.656; -1.590
         47.664; -1.190
         47.672; -0.480
         47.680; -0.110
         47.688; -0.030
         47.695; -0.010
         47.703;  0.020
         47.711;  0.040
         47.719;  0.060
         47.727;  0.070
         47.734;  0.080
         47.742;  0.080
         47.750;  0.100
         47.758;  0.110
         47.766;  0.120
         47.773;  0.120
         47.781;  0.150
         47.789;  0.160
         47.797;  0.170
         47.805;  0.190
         47.812;  0.210
         47.820;  0.200
         47.828;  0.230
         47.836;  0.250
         47.844;  0.240
         47.852;  0.250
         47.859;  0.230
         47.867;  0.230
         47.875;  0.190
         47.883;  0.180
         47.891;  0.150
         47.898;  0.110
         47.906;  0.050
         47.914;  0.040
         47.922;  0.030
         47.930;  0.020
         47.938;  0.020
         47.945;  0.040
         47.953;  0.040
         47.961;  0.040
         47.969;  0.040
         47.977;  0.040
         47.984;  0.060
         47.992;  0.040
         48.000;  0.060
         48.008;  0.040
         48.016;  0.050
         48.023;  0.050
         48.031;  0.050
         48.039;  0.050
         48.047;  0.060
         48.055;  0.050
         48.062;  0.080
         48.070;  0.060
         48.078;  0.060
         48.086;  0.060
         48.094;  0.070
         48.102;  0.050
         48.109;  0.060
         48.117;  0.040
         48.125;  0.040
         48.133;  0.040
         48.141;  0.030
         48.148;  0.040
         48.156;  0.010
         48.164;  0.010
         48.172;  0.010
         48.180;  0.010
         48.188;  0.010
         48.195;  0.020
         48.203;  0.010
         48.211;  0.000
         48.219;  0.000
         48.227;  0.000
         48.234;  0.010
         48.242;  0.000
         48.250;  0.020
         48.258;  0.050
         48.266;  0.070
         48.273;  0.050
         48.281;  0.120
         48.289;  0.170
         48.297;  0.190
         48.305;  0.090
         48.312;  0.070
         48.320; -0.030
         48.328; -0.090
         48.336; -0.080
         48.344; -0.070
         48.352; -0.070
         48.359; -0.060
         48.367; -0.070
         48.375; -0.070
         48.383; -0.080
         48.391; -0.040
         48.398;  0.350
         48.406;  0.580
         48.414; -0.300
         48.422; -1.790
         48.430; -1.740
         48.438; -1.160
         48.445; -0.560
         48.453; -0.230
         48.461; -0.020
         48.469; -0.010
         48.477;  0.010
         48.484;  0.040
         48.492;  0.050
         48.500;  0.070
         48.508;  0.090
         48.516;  0.090
         48.523;  0.100
         48.531;  0.120
         48.539;  0.120
         48.547;  0.130
         48.555;  0.160
         48.562;  0.180
         48.570;  0.160
         48.578;  0.190
         48.586;  0.200
         48.594;  0.210
         48.602;  0.220
         48.609;  0.230
         48.617;  0.240
         48.625;  0.240
         48.633;  0.220
         48.641;  0.200
         48.648;  0.200
         48.656;  0.160
         48.664;  0.140
         48.672;  0.100
         48.680;  0.060
         48.688;  0.030
         48.695;  0.030
         48.703;  0.020
         48.711;  0.010
         48.719;  0.030
         48.727;  0.030
         48.734;  0.030
         48.742;  0.030
         48.750;  0.040
         48.758;  0.020
         48.766;  0.030
         48.773;  0.030
         48.781;  0.040
         48.789;  0.040
         48.797;  0.050
         48.805;  0.050
         48.812;  0.050
         48.820;  0.060
         48.828;  0.060
         48.836;  0.070
         48.844;  0.070
         48.852;  0.070
         48.859;  0.070
         48.867;  0.060
         48.875;  0.050
         48.883;  0.060
         48.891;  0.060
         48.898;  0.050
         48.906;  0.040
         48.914;  0.040
         48.922;  0.040
         48.930;  0.030
         48.938;  0.020
         48.945;  0.020
         48.953;  0.020
         48.961;  0.010
         48.969;  0.020
         48.977;  0.010
         48.984;  0.020
         48.992;  0.000
         49.000;  0.010
         49.008;  0.010
         49.016;  0.000
         49.023; -0.010
         49.031;  0.060
         49.039;  0.060
         49.047;  0.060
         49.055;  0.080
         49.062;  0.200
         49.070;  0.110
         49.078;  0.090
         49.086;  0.040
         49.094; -0.070
         49.102; -0.100
         49.109; -0.090
         49.117; -0.080
         49.125; -0.080
         49.133; -0.090
         49.141; -0.100
         49.148; -0.090
         49.156; -0.100
         49.164;  0.060
         49.172;  0.370
         49.180;  0.780
         49.188; -1.110
         49.195; -1.690
         49.203; -1.280
         49.211; -1.070
         49.219; -0.510
         49.227; -0.120
         49.234; -0.080
         49.242; -0.050
         49.250; -0.020
         49.258; -0.010
         49.266;  0.000
         49.273;  0.040
         49.281;  0.030
         49.289;  0.050
         49.297;  0.050
         49.305;  0.050
         49.312;  0.070
         49.320;  0.060
         49.328;  0.080
         49.336;  0.090
         49.344;  0.100
         49.352;  0.090
         49.359;  0.110
         49.367;  0.120
         49.375;  0.130
         49.383;  0.130
         49.391;  0.130
         49.398;  0.130
         49.406;  0.120
         49.414;  0.110
         49.422;  0.100
         49.430;  0.080
         49.438;  0.080
         49.445;  0.050
         49.453;  0.020
         49.461;  0.000
         49.469;  0.010
         49.477;  0.000
         49.484;  0.010
         49.492; -0.010
         49.500;  0.010
         49.508;  0.010
         49.516;  0.020
         49.523;  0.010
         49.531;  0.030
         49.539;  0.020
         49.547;  0.020
         49.555;  0.020
         49.562;  0.020
         49.570;  0.040
         49.578;  0.040
         49.586;  0.040
         49.594;  0.040
         49.602;  0.030
         49.609;  0.020
         49.617;  0.030
         49.625;  0.030
         49.633;  0.030
         49.641;  0.020
         49.648;  0.010
         49.656;  0.000
         49.664;  0.000
         49.672; -0.010
         49.680;  0.010
         49.688;  0.000
         49.695; -0.020
         49.703; -0.010
         49.711; -0.020
         49.719; -0.020
         49.727; -0.030
         49.734; -0.030
         49.742; -0.030
         49.750; -0.040
         49.758; -0.050
         49.766; -0.050
         49.773; -0.040
         49.781;  0.020
         49.789; -0.020
         49.797;  0.060
         49.805;  0.120
         49.812;  0.110
         49.820;  0.090
         49.828;  0.050
         49.836; -0.040
         49.844; -0.090
         49.852; -0.100
         49.859; -0.080
         49.867; -0.100
         49.875; -0.110
         49.883; -0.100
         49.891; -0.100
         49.898; -0.110
         49.906; -0.030
         49.914;  0.260
         49.922;  0.580
         49.930; -0.280
         49.938; -1.590
         49.945; -1.400
         49.953; -1.150
         49.961; -0.620
         49.969; -0.280
         49.977; -0.050
         49.984; -0.060
         49.992; -0.020
         50.000;  0.010
         50.008;  0.010
         50.016;  0.030
         50.023;  0.050
         50.031;  0.050
         50.039;  0.070
         50.047;  0.080
         50.055;  0.090
         50.062;  0.090
         50.070;  0.110
         50.078;  0.140
         50.086;  0.160
         50.094;  0.160
         50.102;  0.200
         50.109;  0.210
         50.117;  0.240
         50.125;  0.250
         50.133;  0.260
         50.141;  0.260
         50.148;  0.260
         50.156;  0.240
         50.164;  0.230
         50.172;  0.190
         50.180;  0.160
         50.188;  0.130
         50.195;  0.080
         50.203;  0.060
         50.211;  0.040
         50.219;  0.030
         50.227;  0.040
         50.234;  0.050
         50.242;  0.050
         50.250;  0.060
         50.258;  0.060
         50.266;  0.060
         50.273;  0.060
         50.281;  0.070
         50.289;  0.070
         50.297;  0.080
         50.305;  0.080
         50.312;  0.060
         50.320;  0.080
         50.328;  0.070
         50.336;  0.080
         50.344;  0.080
         50.352;  0.090
         50.359;  0.080
         50.367;  0.070
         50.375;  0.060
         50.383;  0.070
         50.391;  0.070
         50.398;  0.060
         50.406;  0.060
         50.414;  0.060
         50.422;  0.060
         50.430;  0.050
         50.438;  0.050
         50.445;  0.040
         50.453;  0.040
         50.461;  0.030
         50.469;  0.040
         50.477;  0.030
         50.484;  0.040
         50.492;  0.030
         50.500;  0.030
         50.508;  0.030
         50.516;  0.040
         50.523;  0.020
         50.531;  0.030
         50.539;  0.080
         50.547;  0.070
         50.555;  0.130
         50.562;  0.120
         50.570;  0.230
         50.578;  0.160
         50.586;  0.110
         50.594;  0.050
         50.602; -0.050
         50.609; -0.060
         50.617; -0.080
         50.625; -0.050
         50.633; -0.050
         50.641; -0.070
         50.648; -0.070
         50.656; -0.060
         50.664; -0.040
         50.672;  0.190
         50.680;  0.480
         50.688;  0.780
         50.695; -1.530
         50.703; -1.940
         50.711; -1.360
         50.719; -1.130
         50.727; -0.440
         50.734; -0.050
         50.742; -0.030
         50.750; -0.020
         50.758;  0.000
         50.766;  0.030
         50.773;  0.030
         50.781;  0.040
         50.789;  0.050
         50.797;  0.070
         50.805;  0.070
         50.812;  0.090
         50.820;  0.110
         50.828;  0.120
         50.836;  0.130
         50.844;  0.160
         50.852;  0.170
         50.859;  0.200
         50.867;  0.210
         50.875;  0.240
         50.883;  0.250
         50.891;  0.260
         50.898;  0.250
         50.906;  0.280
         50.914;  0.260
         50.922;  0.250
         50.930;  0.220
         50.938;  0.210
         50.945;  0.150
         50.953;  0.120
         50.961;  0.060
         50.969;  0.040
         50.977;  0.020
         50.984;  0.020
         50.992;  0.030
         51.000;  0.030
         51.008;  0.030
         51.016;  0.040
         51.023;  0.050
         51.031;  0.040
         51.039;  0.040
         51.047;  0.030
         51.055;  0.040
         51.062;  0.040
         51.070;  0.030
         51.078;  0.040
         51.086;  0.050
         51.094;  0.040
         51.102;  0.050
         51.109;  0.050
         51.117;  0.040
         51.125;  0.060
         51.133;  0.050
         51.141;  0.070
         51.148;  0.040
         51.156;  0.050
         51.164;  0.040
         51.172;  0.040
         51.180;  0.030
         51.188;  0.040
         51.195;  0.020
         51.203;  0.000
         51.211;  0.010
         51.219;  0.000
         51.227;  0.010
         51.234; -0.020
         51.242; -0.020
         51.250; -0.010
         51.258; -0.020
         51.266; -0.020
         51.273; -0.030
         51.281; -0.030
         51.289; -0.020
         51.297; -0.030
         51.305; -0.010
         51.312;  0.050
         51.320;  0.020
         51.328;  0.090
         51.336;  0.120
         51.344;  0.160
         51.352;  0.100
         51.359;  0.050
         51.367; -0.030
         51.375; -0.090
         51.383; -0.110
         51.391; -0.090
         51.398; -0.110
         51.406; -0.080
         51.414; -0.110
         51.422; -0.110
         51.430; -0.110
         51.438; -0.110
         51.445;  0.240
         51.453;  0.450
         51.461;  0.300
         51.469; -1.810
         51.477; -1.970
         51.484; -1.200
         51.492; -0.920
         51.500; -0.420
         51.508; -0.070
         51.516; -0.070
         51.523; -0.040
         51.531; -0.020
         51.539;  0.000
         51.547;  0.010
         51.555;  0.020
         51.562;  0.020
         51.570;  0.050
         51.578;  0.050
         51.586;  0.050
         51.594;  0.070
         51.602;  0.090
         51.609;  0.110
         51.617;  0.110
         51.625;  0.150
         51.633;  0.150
         51.641;  0.170
         51.648;  0.180
         51.656;  0.180
         51.664;  0.210
         51.672;  0.200
         51.680;  0.180
         51.688;  0.180
         51.695;  0.170
         51.703;  0.130
         51.711;  0.130
         51.719;  0.090
         51.727;  0.050
         51.734;  0.020
         51.742;  0.010
         51.750; -0.010
         51.758; -0.020
         51.766; -0.010
         51.773; -0.010
         51.781;  0.000
         51.789;  0.000
         51.797;  0.020
         51.805; -0.010
         51.812;  0.000
         51.820; -0.010
         51.828; -0.010
         51.836;  0.000
         51.844;  0.000
         51.852;  0.020
         51.859;  0.020
         51.867;  0.020
         51.875;  0.030
         51.883;  0.020
         51.891;  0.030
         51.898;  0.030
         51.906;  0.030
         51.914;  0.030
         51.922;  0.040
         51.930;  0.020
         51.938;  0.020
         51.945;  0.020
         51.953;  0.010
         51.961;  0.010
         51.969; -0.010
         51.977; -0.010
         51.984;  0.000
         51.992; -0.010
         52.000; -0.020
         52.008; -0.030
         52.016; -0.020
         52.023; -0.030
         52.031; -0.040
         52.039; -0.040
         52.047; -0.040
         52.055; -0.050
         52.062; -0.050
         52.070; -0.050
         52.078; -0.040
         52.086; -0.030
         52.094;  0.020
         52.102; -0.010
         52.109;  0.060
         52.117;  0.040
         52.125;  0.120
         52.133;  0.070
         52.141;  0.010
         52.148; -0.050
         52.156; -0.160
         52.164; -0.170
         52.172; -0.150
         52.180; -0.120
         52.188; -0.140
         52.195; -0.130
         52.203; -0.160
         52.211; -0.140
         52.219; -0.130
         52.227;  0.100
         52.234;  0.370
         52.242;  0.680
         52.250; -1.570
         52.258; -1.900
         52.266; -1.320
         52.273; -1.140
         52.281; -0.550
         52.289; -0.170
         52.297; -0.140
         52.305; -0.130
         52.312; -0.120
         52.320; -0.100
         52.328; -0.090
         52.336; -0.090
         52.344; -0.090
         52.352; -0.080
         52.359; -0.080
         52.367; -0.100
         52.375; -0.080
         52.383; -0.060
         52.391; -0.070
         52.398; -0.070
         52.406; -0.050
         52.414; -0.050
         52.422; -0.070
         52.430; -0.030
         52.438; -0.040
         52.445; -0.040
         52.453; -0.060
         52.461; -0.060
         52.469; -0.080
         52.477; -0.090
         52.484; -0.100
         52.492; -0.100
         52.500; -0.120
         52.508; -0.150
         52.516; -0.150
         52.523; -0.170
         52.531; -0.170
         52.539; -0.160
         52.547; -0.150
         52.555; -0.130
         52.562; -0.110
         52.570; -0.110
         52.578; -0.100
         52.586; -0.100
         52.594; -0.090
         52.602; -0.080
         52.609; -0.070
         52.617; -0.060
         52.625; -0.070
         52.633; -0.040
         52.641; -0.040
         52.648; -0.030
         52.656; -0.020
         52.664; -0.010
         52.672; -0.020
         52.680;  0.000
         52.688; -0.010
         52.695;  0.020
         52.703;  0.000
         52.711;  0.000
         52.719;  0.000
         52.727; -0.010
         52.734; -0.010
         52.742; -0.010
         52.750; -0.020
         52.758; -0.040
         52.766; -0.010
         52.773; -0.010
         52.781; -0.030
         52.789; -0.040
         52.797; -0.030
         52.805; -0.050
         52.812; -0.040
         52.820; -0.030
         52.828; -0.040
         52.836; -0.040
         52.844; -0.040
         52.852;  0.000
         52.859;  0.040
         52.867;  0.000
         52.875;  0.070
         52.883;  0.140
         52.891;  0.120
         52.898;  0.090
         52.906;  0.050
         52.914; -0.030
         52.922; -0.080
         52.930; -0.110
         52.938; -0.080
         52.945; -0.090
         52.953; -0.120
         52.961; -0.110
         52.969; -0.100
         52.977; -0.120
         52.984; -0.100
         52.992;  0.220
         53.000;  0.560
         53.008;  0.100
         53.016; -1.540
         53.023; -1.470
         53.031; -1.160
         53.039; -0.690
         53.047; -0.380
         53.055; -0.040
         53.062; -0.060
         53.070; -0.020
         53.078;  0.000
         53.086;  0.000
         53.094;  0.000
         53.102;  0.040
         53.109;  0.030
         53.117;  0.050
         53.125;  0.060
         53.133;  0.080
         53.141;  0.070
         53.148;  0.090
         53.156;  0.090
         53.164;  0.120
         53.172;  0.120
         53.180;  0.130
         53.188;  0.150
         53.195;  0.170
         53.203;  0.180
         53.211;  0.180
         53.219;  0.190
         53.227;  0.180
         53.234;  0.170
         53.242;  0.160
         53.250;  0.150
         53.258;  0.130
         53.266;  0.100
         53.273;  0.090
         53.281;  0.060
         53.289;  0.050
         53.297;  0.030
         53.305;  0.020
         53.312;  0.020
         53.320;  0.020
         53.328;  0.020
         53.336;  0.030
         53.344;  0.030
         53.352;  0.020
         53.359;  0.030
         53.367;  0.050
         53.375;  0.050
         53.383;  0.060
         53.391;  0.070
         53.398;  0.060
         53.406;  0.060
         53.414;  0.070
         53.422;  0.070
         53.430;  0.060
         53.438;  0.070
         53.445;  0.060
         53.453;  0.060
         53.461;  0.040
         53.469;  0.050
         53.477;  0.030
         53.484;  0.030
         53.492;  0.030
         53.500;  0.020
         53.508;  0.010
         53.516;  0.010
         53.523;  0.010
         53.531;  0.010
         53.539;  0.010
         53.547;  0.000
         53.555;  0.010
         53.562;  0.000
         53.570; -0.020
         53.578; -0.010
         53.586;  0.010
         53.594;  0.000
         53.602; -0.010
         53.609;  0.000
         53.617;  0.010
         53.625;  0.070
         53.633;  0.050
         53.641;  0.120
         53.648;  0.110
         53.656;  0.210
         53.664;  0.150
         53.672;  0.090
         53.680;  0.040
         53.688; -0.050
         53.695; -0.070
         53.703; -0.080
         53.711; -0.060
         53.719; -0.050
         53.727; -0.060
         53.734; -0.070
         53.742; -0.060
         53.750; -0.050
         53.758;  0.190
         53.766;  0.480
         53.773;  0.780
         53.781; -1.560
         53.789; -1.940
         53.797; -1.380
         53.805; -1.130
         53.812; -0.420
         53.820; -0.040
         53.828; -0.010
         53.836;  0.010
         53.844;  0.030
         53.852;  0.040
         53.859;  0.080
         53.867;  0.090
         53.875;  0.080
         53.883;  0.100
         53.891;  0.120
         53.898;  0.140
         53.906;  0.130
         53.914;  0.160
         53.922;  0.180
         53.930;  0.190
         53.938;  0.210
         53.945;  0.230
         53.953;  0.250
         53.961;  0.260
         53.969;  0.270
         53.977;  0.300
         53.984;  0.300
         53.992;  0.290
         54.000;  0.300
         54.008;  0.280
         54.016;  0.260
         54.023;  0.240
         54.031;  0.210
         54.039;  0.150
         54.047;  0.130
         54.055;  0.100
         54.062;  0.080
         54.070;  0.080
         54.078;  0.080
         54.086;  0.070
         54.094;  0.090
         54.102;  0.070
         54.109;  0.100
         54.117;  0.080
         54.125;  0.080
         54.133;  0.070
         54.141;  0.090
         54.148;  0.070
         54.156;  0.070
         54.164;  0.080
         54.172;  0.070
         54.180;  0.080
         54.188;  0.080
         54.195;  0.090
         54.203;  0.090
         54.211;  0.090
         54.219;  0.100
         54.227;  0.100
         54.234;  0.090
         54.242;  0.080
         54.250;  0.100
         54.258;  0.080
         54.266;  0.060
         54.273;  0.050
         54.281;  0.050
         54.289;  0.030
         54.297;  0.030
         54.305;  0.020
         54.312;  0.030
         54.320; -0.010
         54.328;  0.010
         54.336; -0.010
         54.344;  0.000
         54.352; -0.010
         54.359;  0.000
         54.367; -0.020
         54.375; -0.020
         54.383;  0.000
         54.391;  0.000
         54.398;  0.040
         54.406;  0.060
         54.414;  0.040
         54.422;  0.110
         54.430;  0.120
         54.438;  0.170
         54.445;  0.090
         54.453;  0.050
         54.461; -0.020
         54.469; -0.090
         54.477; -0.100
         54.484; -0.090
         54.492; -0.080
         54.500; -0.060
         54.508; -0.090
         54.516; -0.080
         54.523; -0.090
         54.531; -0.080
         54.539;  0.280
         54.547;  0.490
         54.555;  0.330
         54.562; -1.810
         54.570; -1.970
         54.578; -1.170
         54.586; -0.810
         54.594; -0.330
         54.602; -0.020
         54.609; -0.030
         54.617;  0.010
         54.625;  0.040
         54.633;  0.060
         54.641;  0.060
         54.648;  0.080
         54.656;  0.080
         54.664;  0.110
         54.672;  0.100
         54.680;  0.110
         54.688;  0.110
         54.695;  0.140
         54.703;  0.150
         54.711;  0.160
         54.719;  0.170
         54.727;  0.180
         54.734;  0.190
         54.742;  0.220
         54.750;  0.220
         54.758;  0.230
         54.766;  0.230
         54.773;  0.230
         54.781;  0.220
         54.789;  0.200
         54.797;  0.180
         54.805;  0.150
         54.812;  0.120
         54.820;  0.070
         54.828;  0.050
         54.836;  0.020
         54.844;  0.010
         54.852;  0.010
         54.859;  0.000
         54.867;  0.020
         54.875;  0.020
         54.883;  0.030
         54.891;  0.030
         54.898;  0.020
         54.906;  0.020
         54.914;  0.030
         54.922;  0.030
         54.930;  0.020
         54.938;  0.040
         54.945;  0.050
         54.953;  0.040
         54.961;  0.050
         54.969;  0.070
         54.977;  0.070
         54.984;  0.070
         54.992;  0.060
         55.000;  0.080
         55.008;  0.050
         55.016;  0.080
         55.023;  0.060
         55.031;  0.080
         55.039;  0.060
         55.047;  0.060
         55.055;  0.050
         55.062;  0.040
         55.070;  0.030
         55.078;  0.040
         55.086;  0.050
         55.094;  0.030
         55.102;  0.030
         55.109;  0.030
         55.117;  0.030
         55.125;  0.010
         55.133;  0.020
         55.141;  0.010
         55.148;  0.010
         55.156;  0.000
         55.164;  0.010
         55.172; -0.010
         55.180;  0.000
         55.188;  0.000
         55.195; -0.010
         55.203;  0.050
         55.211;  0.040
         55.219;  0.060
         55.227;  0.100
         55.234;  0.150
         55.242;  0.150
         55.250;  0.050
         55.258;  0.010
         55.266; -0.070
         55.273; -0.130
         55.281; -0.100
         55.289; -0.100
         55.297; -0.090
         55.305; -0.080
         55.312; -0.100
         55.320; -0.080
         55.328; -0.100
         55.336; -0.050
         55.344;  0.330
         55.352;  0.560
         55.359; -0.430
         55.367; -1.850
         55.375; -1.770
         55.383; -1.200
         55.391; -0.550
         55.398; -0.220
         55.406; -0.030
         55.414; -0.040
         55.422;  0.000
         55.430;  0.010
         55.438;  0.050
         55.445;  0.050
         55.453;  0.060
         55.461;  0.060
         55.469;  0.080
         55.477;  0.080
         55.484;  0.090
         55.492;  0.090
         55.500;  0.120
         55.508;  0.120
         55.516;  0.140
         55.523;  0.150
         55.531;  0.160
         55.539;  0.180
         55.547;  0.170
         55.555;  0.190
         55.562;  0.200
         55.570;  0.200
         55.578;  0.180
         55.586;  0.180
         55.594;  0.150
         55.602;  0.120
         55.609;  0.110
         55.617;  0.050
         55.625;  0.030
         55.633;  0.020
         55.641; -0.010
         55.648; -0.020
         55.656; -0.020
         55.664; -0.010
         55.672;  0.010
         55.680;  0.000
         55.688;  0.020
         55.695;  0.030
         55.703;  0.030
         55.711;  0.020
         55.719;  0.030
         55.727;  0.020
         55.734;  0.040
         55.742;  0.030
         55.750;  0.050
         55.758;  0.050
         55.766;  0.030
         55.773;  0.050
         55.781;  0.050
         55.789;  0.060
         55.797;  0.040
         55.805;  0.060
         55.812;  0.040
         55.820;  0.040
         55.828;  0.030
         55.836;  0.030
         55.844;  0.000
         55.852;  0.020
         55.859;  0.010
         55.867;  0.010
         55.875;  0.000
         55.883; -0.010
         55.891; -0.010
         55.898; -0.010
         55.906; -0.020
         55.914; -0.010
         55.922; -0.020
         55.930; -0.030
         55.938; -0.030
         55.945; -0.040
         55.953; -0.030
         55.961; -0.040
         55.969; -0.020
         55.977;  0.020
         55.984;  0.010
         55.992;  0.070
         56.000;  0.080
         56.008;  0.160
         56.016;  0.130
         56.023;  0.070
         56.031;  0.030
         56.039; -0.070
         56.047; -0.100
         56.055; -0.090
         56.062; -0.070
         56.070; -0.070
         56.078; -0.100
         56.086; -0.080
         56.094; -0.080
         56.102; -0.080
         56.109;  0.140
         56.117;  0.440
         56.125;  0.770
         56.133; -1.000
         56.141; -1.620
         56.148; -1.240
         56.156; -1.020
         56.164; -0.530
         56.172; -0.090
         56.180; -0.060
         56.188; -0.030
         56.195; -0.010
         56.203;  0.020
         56.211;  0.020
         56.219;  0.040
         56.227;  0.040
         56.234;  0.050
         56.242;  0.050
         56.250;  0.070
         56.258;  0.070
         56.266;  0.080
         56.273;  0.100
         56.281;  0.090
         56.289;  0.100
         56.297;  0.130
         56.305;  0.140
         56.312;  0.130
         56.320;  0.140
         56.328;  0.150
         56.336;  0.150
         56.344;  0.150
         56.352;  0.130
         56.359;  0.130
         56.367;  0.100
         56.375;  0.100
         56.383;  0.070
         56.391;  0.040
         56.398;  0.010
         56.406;  0.010
         56.414;  0.000
         56.422; -0.010
         56.430; -0.020
         56.438; -0.010
         56.445; -0.020
         56.453;  0.000
         56.461; -0.020
         56.469;  0.000
         56.477;  0.010
         56.484;  0.010
         56.492;  0.020
         56.500;  0.020
         56.508;  0.020
         56.516;  0.020
         56.523;  0.030
         56.531;  0.030
         56.539;  0.030
         56.547;  0.030
         56.555;  0.040
         56.562;  0.040
         56.570;  0.040
         56.578;  0.050
         56.586;  0.030
         56.594;  0.020
         56.602;  0.030
         56.609;  0.030
         56.617;  0.030
         56.625;  0.020
         56.633;  0.010
         56.641;  0.020
         56.648;  0.010
         56.656;  0.010
         56.664;  0.000
         56.672;  0.020
         56.680;  0.000
         56.688;  0.000
         56.695; -0.010
         56.703;  0.000
         56.711; -0.010
         56.719;  0.000
         56.727; -0.010
         56.734; -0.010
         56.742;  0.030
         56.750;  0.060
         56.758;  0.050
         56.766;  0.080
         56.773;  0.160
         56.781;  0.140
         56.789;  0.060
         56.797;  0.050
         56.805; -0.050
         56.812; -0.100
         56.820; -0.100
         56.828; -0.070
         56.836; -0.090
         56.844; -0.090
         56.852; -0.090
         56.859; -0.080
         56.867; -0.080
         56.875;  0.060
         56.883;  0.400
         56.891;  0.710
         56.898; -0.910
         56.906; -1.770
         56.914; -1.520
         56.922; -1.190
         56.930; -0.540
         56.938; -0.150
         56.945; -0.020
         56.953;  0.010
         56.961;  0.020
         56.969;  0.070
         56.977;  0.080
         56.984;  0.080
         56.992;  0.110
         57.000;  0.130
         57.008;  0.130
         57.016;  0.150
         57.023;  0.170
         57.031;  0.160
         57.039;  0.190
         57.047;  0.210
         57.055;  0.210
         57.062;  0.250
         57.070;  0.260
         57.078;  0.290
         57.086;  0.310
         57.094;  0.300
         57.102;  0.320
         57.109;  0.310
         57.117;  0.300
         57.125;  0.280
         57.133;  0.270
         57.141;  0.240
         57.148;  0.180
         57.156;  0.160
         57.164;  0.100
         57.172;  0.090
         57.180;  0.060
         57.188;  0.080
         57.195;  0.070
         57.203;  0.070
         57.211;  0.060
         57.219;  0.070
         57.227;  0.080
         57.234;  0.080
         57.242;  0.080
         57.250;  0.080
         57.258;  0.080
         57.266;  0.080
         57.273;  0.090
         57.281;  0.080
         57.289;  0.100
         57.297;  0.100
         57.305;  0.130
         57.312;  0.100
         57.320;  0.100
         57.328;  0.100
         57.336;  0.110
         57.344;  0.100
         57.352;  0.100
         57.359;  0.090
         57.367;  0.080
         57.375;  0.070
         57.383;  0.060
         57.391;  0.070
         57.398;  0.060
         57.406;  0.050
         57.414;  0.050
         57.422;  0.040
         57.430;  0.040
         57.438;  0.050
         57.445;  0.040
         57.453;  0.020
         57.461;  0.030
         57.469;  0.020
         57.477;  0.020
         57.484;  0.020
         57.492;  0.020
         57.500;  0.020
         57.508;  0.010
         57.516;  0.040
         57.523;  0.090
         57.531;  0.050
         57.539;  0.130
         57.547;  0.120
         57.555;  0.210
         57.562;  0.090
         57.570;  0.060
         57.578; -0.010
         57.586; -0.100
         57.594; -0.100
         57.602; -0.080
         57.609; -0.070
         57.617; -0.060
         57.625; -0.080
         57.633; -0.070
         57.641; -0.070
         57.648; -0.050
         57.656;  0.270
         57.664;  0.490
         57.672;  0.500
         57.680; -1.790
         57.688; -1.980
         57.695; -1.160
         57.703; -0.900
         57.711; -0.360
         57.719; -0.010
         57.727; -0.010
         57.734;  0.010
         57.742;  0.040
         57.750;  0.070
         57.758;  0.070
         57.766;  0.090
         57.773;  0.110
         57.781;  0.100
         57.789;  0.110
         57.797;  0.140
         57.805;  0.140
         57.812;  0.160
         57.820;  0.170
         57.828;  0.170
         57.836;  0.200
         57.844;  0.200
         57.852;  0.230
         57.859;  0.250
         57.867;  0.260
         57.875;  0.250
         57.883;  0.260
         57.891;  0.260
         57.898;  0.220
         57.906;  0.230
         57.914;  0.190
         57.922;  0.170
         57.930;  0.130
         57.938;  0.090
         57.945;  0.060
         57.953;  0.030
         57.961;  0.020
         57.969;  0.010
         57.977;  0.020
         57.984;  0.010
         57.992;  0.040
         58.000;  0.040
         58.008;  0.040
         58.016;  0.040
         58.023;  0.040
         58.031;  0.050
         58.039;  0.040
         58.047;  0.060
         58.055;  0.060
         58.062;  0.050
         58.070;  0.060
         58.078;  0.080
         58.086;  0.070
         58.094;  0.090
         58.102;  0.090
         58.109;  0.100
         58.117;  0.090
         58.125;  0.080
         58.133;  0.090
         58.141;  0.080
         58.148;  0.070
         58.156;  0.080
         58.164;  0.070
         58.172;  0.060
         58.180;  0.040
         58.188;  0.050
         58.195;  0.040
         58.203;  0.030
         58.211;  0.030
         58.219;  0.020
         58.227;  0.020
         58.234;  0.010
         58.242;  0.020
         58.250;  0.010
         58.258;  0.020
         58.266; -0.010
         58.273;  0.020
         58.281;  0.000
         58.289;  0.000
         58.297;  0.010
         58.305;  0.010
         58.312;  0.000
         58.320; -0.010
         58.328;  0.050
         58.336;  0.060
         58.344;  0.030
         58.352;  0.110
         58.359;  0.130
         58.367;  0.160
         58.375;  0.060
         58.383;  0.010
         58.391; -0.040
         58.398; -0.130
         58.406; -0.110
         58.414; -0.110
         58.422; -0.100
         58.430; -0.090
         58.438; -0.100
         58.445; -0.090
         58.453; -0.100
         58.461; -0.080
         58.469;  0.310
         58.477;  0.510
         58.484; -0.180
         58.492; -1.860
         58.500; -1.860
         58.508; -1.180
         58.516; -0.660
         58.523; -0.270
         58.531; -0.020
         58.539; -0.040
         58.547;  0.010
         58.555;  0.030
         58.562;  0.040
         58.570;  0.060
         58.578;  0.070
         58.586;  0.080
         58.594;  0.090
         58.602;  0.100
         58.609;  0.120
         58.617;  0.120
         58.625;  0.130
         58.633;  0.150
         58.641;  0.170
         58.648;  0.160
         58.656;  0.190
         58.664;  0.220
         58.672;  0.220
         58.680;  0.240
         58.688;  0.240
         58.695;  0.240
         58.703;  0.230
         58.711;  0.230
         58.719;  0.210
         58.727;  0.200
         58.734;  0.170
         58.742;  0.140
         58.750;  0.090
         58.758;  0.060
         58.766;  0.040
         58.773;  0.040
         58.781;  0.020
         58.789;  0.020
         58.797;  0.040
         58.805;  0.050
         58.812;  0.050
         58.820;  0.050
         58.828;  0.050
         58.836;  0.040
         58.844;  0.030
         58.852;  0.050
         58.859;  0.040
         58.867;  0.040
         58.875;  0.050
         58.883;  0.050
         58.891;  0.050
         58.898;  0.050
         58.906;  0.070
         58.914;  0.040
         58.922;  0.060
         58.930;  0.050
         58.938;  0.050
         58.945;  0.040
         58.953;  0.030
         58.961;  0.050
         58.969;  0.030
         58.977;  0.030
         58.984;  0.030
         58.992;  0.030
         59.000;  0.010
         59.008; -0.030
         59.016;  0.010
         59.023; -0.010
         59.031; -0.030
         59.039; -0.010
         59.047; -0.020
         59.055; -0.030
         59.062; -0.020
         59.070; -0.040
         59.078; -0.020
         59.086; -0.030
         59.094; -0.030
         59.102; -0.040
         59.109; -0.010
         59.117;  0.020
         59.125; -0.020
         59.133;  0.060
         59.141;  0.050
         59.148;  0.140
         59.156;  0.080
         59.164;  0.030
         59.172; -0.040
         59.180; -0.120
         59.188; -0.130
         59.195; -0.140
         59.203; -0.110
         59.211; -0.100
         59.219; -0.120
         59.227; -0.120
         59.234; -0.110
         59.242; -0.110
         59.250;  0.170
         59.258;  0.480
         59.266;  0.670
         59.273; -1.480
         59.281; -1.730
         59.289; -1.170
         59.297; -0.910
         59.305; -0.470
         59.312; -0.080
         59.320; -0.090
         59.328; -0.050
         59.336; -0.020
         59.344;  0.000
         59.352;  0.020
         59.359;  0.030
         59.367;  0.010
         59.375;  0.050
         59.383;  0.060
         59.391;  0.060
         59.398;  0.070
         59.406;  0.080
         59.414;  0.080
         59.422;  0.100
         59.430;  0.110
         59.438;  0.120
         59.445;  0.110
         59.453;  0.130
         59.461;  0.140
         59.469;  0.140
         59.477;  0.150
         59.484;  0.130
         59.492;  0.130
         59.500;  0.120
         59.508;  0.120
         59.516;  0.090
         59.523;  0.060
         59.531;  0.030
         59.539;  0.020
         59.547;  0.010
         59.555;  0.000
         59.562;  0.020
         59.570; -0.010
         59.578;  0.020
         59.586;  0.000
         59.594;  0.010
         59.602;  0.010
         59.609;  0.010
         59.617; -0.010
         59.625;  0.020
         59.633;  0.000
         59.641;  0.010
         59.648;  0.010
         59.656;  0.010
         59.664;  0.010
         59.672;  0.020
         59.680;  0.010
         59.688;  0.020
         59.695;  0.020
         59.703;  0.010
         59.711;  0.010
         59.719;  0.010
         59.727; -0.010
         59.734;  0.010
         59.742; -0.010
         59.750; -0.030
         59.758; -0.010
         59.766; -0.030
         59.773; -0.040
         59.781; -0.040
         59.789; -0.040
         59.797; -0.040
         59.805; -0.040
         59.812; -0.050
         59.820; -0.040
         59.828; -0.050
         59.836; -0.060
         59.844; -0.040
         59.852; -0.070
         59.859; -0.050
         59.867; -0.020
         59.875;  0.030
         59.883; -0.010
         59.891;  0.060
         59.898;  0.060
         59.906;  0.140
         59.914;  0.100
         59.922;  0.060
         59.930; -0.010
         59.938; -0.100
         59.945; -0.100
         59.953; -0.110
         59.961; -0.100
         59.969; -0.110
         59.977; -0.120
         59.984; -0.110
         59.992; -0.120
